time,seconds_elapsed,z,y,x
1750742373872996000,0.07899609375,-0.9855758547782898,-0.9660934209823608,-1.2679778337478638
1750742373898069200,0.1040693359375,-1.2769767045974731,-2.067760944366455,-0.3756438195705414
1750742373923142100,0.12914208984375,-1.4454858303070068,-2.155146837234497,0.4090733230113983
1750742373948216000,0.154216064453125,-1.4132288694381714,-1.5749294757843018,0.8384010195732117
1750742373973289000,0.1792890625,-0.8148558735847473,-0.20531783998012543,1.285375952720642
1750742373998362000,0.204362060546875,-0.024566853418946266,-0.6185008883476257,1.3871959447860718
1750742374023434800,0.229434814453125,0.3254368007183075,-1.2458091974258423,1.0213994979858398
1750742374048508000,0.2545078125,0.3936903476715088,-0.021112671121954918,0.6492283940315247
1750742374073581800,0.279581787109375,0.17987045645713806,-0.20659874379634857,0.3221234083175659
1750742374098655000,0.304655029296875,0.1393386870622635,-0.4200862944126129,0.5028696656227112
1750742374123728000,0.329727783203125,0.6299781799316406,-0.9231760501861572,0.6383978724479675
1750742374148800800,0.35480078125,0.8567711114883423,-1.4147448539733887,0.7223715782165527
1750742374173875000,0.379875,0.7574234008789062,-1.3271281719207764,0.8125766515731812
1750742374198947800,0.40494775390625,0.7202783823013306,-1.774336338043213,0.7049926519393921
1750742374224021000,0.43002099609375,1.0671380758285522,-1.9073470830917358,0.7213614583015442
1750742374249094000,0.455093994140625,1.4559555053710938,-2.41996169090271,0.43864667415618896
1750742374274168000,0.48016796875,2.061844825744629,-2.588744640350342,0.2575841546058655
1750742374299240700,0.50524072265625,2.0631163120269775,-2.9898343086242676,0.11645989120006561
1750742374324313900,0.53031396484375,1.7364211082458496,-2.161245107650757,-0.4499050974845886
1750742374349387800,0.5553876953125,2.3510982990264893,-1.91023850440979,-1.1013953685760498
1750742374374461000,0.5804609375,2.943572759628296,-3.414161205291748,-0.6427298784255981
1750742374399534000,0.6055341796875,3.0917000770568848,-4.470565319061279,0.4663432240486145
1750742374424606700,0.630606689453125,3.7974019050598145,-3.4805309772491455,0.8126347661018372
1750742374449681000,0.655680908203125,4.094202041625977,-2.6302318572998047,0.873119056224823
1750742374474753800,0.68075390625,3.353015184402466,-3.3314173221588135,1.1064367294311523
1750742374499827000,0.705826904296875,3.2839553356170654,-3.024144411087036,2.20510196685791
1750742374524899800,0.73089990234375,2.5389978885650635,-2.961050510406494,2.1583335399627686
1750742374549974000,0.75597412109375,2.2227134704589844,-3.170419216156006,2.532064437866211
1750742374575047000,0.781046875,1.9772635698318481,-4.071273326873779,3.662886381149292
1750742374600119800,0.806119873046875,1.7545430660247803,-4.775367259979248,3.812335968017578
1750742374625193000,0.83119287109375,1.7287184000015259,-4.569375514984131,2.182614326477051
1750742374650267000,0.856266845703125,2.396636962890625,-3.8604772090911865,0.7872300148010254
1750742374675340000,0.881340087890625,2.535524606704712,-3.0750460624694824,0.029032062739133835
1750742374700413000,0.906412841796875,1.747261643409729,-2.8473448753356934,-0.9077960848808289
1750742374725487000,0.931487060546875,1.9240305423736572,-1.276482343673706,-1.7602274417877197
1750742374750559700,0.956559814453125,0.9484689235687256,0.4961296021938324,-1.6849042177200317
1750742374775633000,0.9816328125,1.3143666982650757,3.6100125312805176,-0.6260174512863159
1750742374800705800,1.006705810546875,0.4724787473678589,2.904536724090576,-1.196918249130249
1750742374825780000,1.031780029296875,-0.6638413667678833,-0.5504809021949768,-0.01637174002826214
1750742374850852900,1.056852783203125,0.19970892369747162,-1.7518941164016724,0.41287150979042053
1750742374875926000,1.081926025390625,0.35165736079216003,-2.2089462280273438,0.3317015767097473
1750742374901000000,1.107,0.6586732864379883,-0.7448720335960388,-0.44009679555892944
1750742374926072800,1.13207275390625,1.3549933433532715,2.0902185440063477,-1.7924880981445312
1750742374951146000,1.15714599609375,1.199819803237915,1.370475172996521,-1.527107834815979
1750742374976219000,1.182218994140625,1.4327101707458496,-0.10650049149990082,0.49778759479522705
1750742375001293000,1.20729296875,1.206442952156067,-0.6823214888572693,-0.7132530212402344
1750742375026366000,1.232365966796875,0.40827256441116333,-0.9428149461746216,-0.016884665936231613
1750742375051438800,1.25743896484375,0.014418728649616241,-0.40576016902923584,0.13216672837734222
1750742375076512800,1.2825126953125,0.7582973837852478,-1.6531970500946045,0.017392031848430634
1750742375101586000,1.3075859375,2.3090121746063232,-3.5366456508636475,0.5547700524330139
1750742375126658800,1.332658935546875,3.929072618484497,-4.050461292266846,1.5253679752349854
1750742375151733000,1.35773291015625,5.469159126281738,-4.031617641448975,2.0430691242218018
1750742375176806000,1.382805908203125,5.3282694816589355,-2.950232744216919,1.3116624355316162
1750742375201880000,1.407880126953125,2.6614036560058594,-0.5461265444755554,0.27558764815330505
1750742375226953000,1.432952880859375,1.2921608686447144,0.0907130315899849,0.02970844693481922
1750742375252025900,1.45802587890625,1.4194302558898926,0.40243902802467346,-0.3450053334236145
1750742375277099800,1.483099853515625,0.5708295702934265,1.4718364477157593,-0.8892900347709656
1750742375302173000,1.5081728515625,-0.06756874173879623,2.6786351203918457,-0.9838739633560181
1750742375327245800,1.533245849609375,0.6079819202423096,1.0788474082946777,-0.48856121301651
1750742375352320000,1.558320068359375,1.0390713214874268,-1.493140459060669,-0.2786608636379242
1750742375377393000,1.583392822265625,-0.40037211775779724,-0.6838839650154114,-0.023227933794260025
1750742375402467000,1.608467041015625,1.251512885093689,-1.085201621055603,-1.6934138536453247
1750742375427539700,1.633539794921875,4.370830059051514,-2.354310989379883,-3.1450297832489014
1750742375452612900,1.65861279296875,1.234582543373108,-0.651446521282196,-1.0961006879806519
1750742375477686800,1.683686767578125,-0.7898707389831543,1.2459203004837036,0.5240075588226318
1750742375502760000,1.708760009765625,0.21073471009731293,-0.32527080178260803,0.00031567271798849106
1750742375527833900,1.733833740234375,0.42697566747665405,-0.8483401536941528,0.06709816306829453
1750742375552907000,1.758906982421875,0.7679148316383362,-0.6911870241165161,-0.1818065196275711
1750742375577980000,1.78397998046875,0.35225510597229004,-0.06740380823612213,0.18173131346702576
1750742375603053800,1.8090537109375,0.046937234699726105,-0.0830860510468483,0.06701677292585373
1750742375628127000,1.834126953125,0.13777297735214233,-0.16943606734275818,0.4119951128959656
1750742375653201000,1.859200927734375,0.23450741171836853,-0.2044656127691269,-0.13099469244480133
1750742375678273800,1.884273681640625,0.049919649958610535,0.012164735235273838,0.1605079621076584
1750742375703348000,1.909347900390625,-0.24509811401367188,0.028694594278931618,0.045313943177461624
1750742375728420900,1.9344208984375,-0.22135023772716522,-0.09549327939748764,-0.03653130680322647
1750742375753495000,1.9594951171875,-0.24518534541130066,-0.13311703503131866,-0.036436259746551514
1750742375778568000,1.98456787109375,-0.23151102662086487,-0.14207200706005096,0.06108708679676056
1750742375803640800,2.009640869140625,-0.17588409781455994,-0.12893594801425934,0.16045184433460236
1750742375828714800,2.03471484375,-0.0995035320520401,-0.1252850890159607,0.16363804042339325
1750742375853788000,2.059787841796875,-0.05031276494264603,-0.15729358792304993,0.18454186618328094
1750742375878861800,2.08486181640625,-0.06415794044733047,-0.14220869541168213,0.23808449506759644
1750742375903935000,2.10993505859375,-0.10724979639053345,-0.06002133712172508,0.2385510802268982
1750742375929009000,2.1350087890625,-0.07193315029144287,0.029579170048236847,0.1973351687192917
1750742375954082000,2.16008203125,0.09872914850711823,0.07536659389734268,0.19614346325397491
1750742375979156000,2.185156005859375,0.2859748303890228,0.01199935283511877,0.20566542446613312
1750742376004228900,2.210228759765625,0.3641182482242584,-0.05492609739303589,0.1071215346455574
1750742376029303000,2.235302978515625,0.3342740535736084,-0.11046700179576874,-0.06061653792858124
1750742376054376200,2.260376220703125,0.23763775825500488,-0.1289658099412918,-0.13957040011882782
1750742376079450000,2.2854501953125,0.2275932878255844,-0.2508530914783478,0.0018244718667119741
1750742376104523300,2.310523193359375,0.3063111901283264,-0.3029623329639435,0.10617338120937347
1750742376129597200,2.33559716796875,0.3032092750072479,-0.34706565737724304,0.20971053838729858
1750742376154670300,2.36067041015625,0.2596009373664856,-0.2832726240158081,0.1975192129611969
1750742376179744300,2.385744140625,0.18342188000679016,-0.22428326308727264,0.11866530776023865
1750742376204817200,2.410817138671875,0.02209979109466076,-0.2835492491722107,0.055247481912374496
1750742376229891000,2.43589111328125,-0.1404932737350464,-0.24385976791381836,0.03304019942879677
1750742376254964200,2.460964111328125,-0.15503911674022675,-0.16558726131916046,0.019553085789084435
1750742376280038100,2.4860380859375,-0.14928480982780457,-0.14718052744865417,0.05412428081035614
1750742376305111300,2.511111328125,-0.14416080713272095,-0.05730127543210983,0.07391292601823807
1750742376330185200,2.536185302734375,-0.07507558912038803,0.0003446860355325043,0.06531079858541489
1750742376355258000,2.561258056640625,-0.042538657784461975,0.02426321618258953,0.027888266369700432
1750742376380332300,2.586332275390625,-0.09253048151731491,0.007263654842972755,-0.029470451176166534
1750742376405405000,2.611405029296875,-0.05835866928100586,-0.09489645808935165,-0.11253073066473007
1750742376430479000,2.63647900390625,-0.005286962725222111,-0.056884776800870895,-0.11980576068162918
1750742376455552000,2.661552001953125,-0.0476231649518013,0.1371665894985199,-0.05121374502778053
1750742376480626200,2.686626220703125,-0.15127547085285187,0.18676355481147766,0.03730027750134468
1750742376505699000,2.711698974609375,-0.09330436587333679,0.11384769529104233,0.12703509628772736
1750742376530772200,2.736772216796875,-0.022082997485995293,0.11104419827461243,0.11179400980472565
1750742376555846100,2.76184619140625,-0.033950090408325195,0.265089213848114,0.08330859243869781
1750742376580919300,2.786919189453125,-0.06997872143983841,0.2702404856681824,0.033681780099868774
1750742376605993200,2.8119931640625,-0.016849631443619728,0.22731530666351318,0.06093332916498184
1750742376631066000,2.837066162109375,-0.005999084562063217,0.19307279586791992,0.10926245152950287
1750742376656140000,2.86214013671875,-0.025542397052049637,0.2671769857406616,0.10563091188669205
1750742376681213200,2.887213134765625,-0.09205780923366547,0.2638877332210541,0.08537906408309937
1750742376706287000,2.912287109375,-0.1069059893488884,0.18355119228363037,0.08620081096887589
1750742376731360300,2.9373603515625,-0.09346715360879898,0.08060312271118164,0.0990501344203949
1750742376756434200,2.96243408203125,-0.10687807202339172,0.08974648267030716,0.040379542857408524
1750742376781507300,2.98750732421875,-0.12345194071531296,0.1115555539727211,0.050515517592430115
1750742376806581200,3.012581298828125,-0.12142442166805267,0.06253965198993683,0.06287884712219238
1750742376831654100,3.037654052734375,-0.10665500164031982,-0.022062895819544792,0.07416455447673798
1750742376856728000,3.06272802734375,-0.06763605028390884,0.036318931728601456,0.040145523846149445
1750742376881801200,3.08780126953125,0.001889904960989952,-0.03675944358110428,-0.037754125893116
1750742376906875100,3.112875244140625,0.06818165630102158,-0.007450418546795845,-0.057135097682476044
1750742376931948300,3.1379482421875,0.09191539883613586,0.019651100039482117,0.0044969250448048115
1750742376957022200,3.163022216796875,0.11743113398551941,0.06878684461116791,0.09297975897789001
1750742376982095400,3.188095458984375,0.11414764821529388,0.029325122013688087,0.043657686561346054
1750742377007169300,3.213169189453125,0.06070699170231819,0.008991668932139874,-0.06338730454444885
1750742377032242400,3.238242431640625,0.004132112488150597,-0.07106831669807434,-0.08210910856723785
1750742377057315600,3.263315673828125,-0.030385153368115425,0.11744354665279388,0.026154683902859688
1750742377082389500,3.288389404296875,-0.05880394205451012,0.21943175792694092,0.0447530597448349
1750742377107462700,3.313462646484375,-0.10324420034885406,0.3127216696739197,0.013050289824604988
1750742377132536600,3.33853662109375,-0.11634532362222672,0.08929377794265747,-0.048264794051647186
1750742377157609500,3.363609375,-0.11427698284387589,-0.061161141842603683,0.006092129275202751
1750742377182683400,3.388683349609375,-0.06228654086589813,0.15448704361915588,0.08903678506612778
1750742377207756500,3.413756591796875,-0.018112819641828537,0.2288055717945099,0.07166146486997604
1750742377232830500,3.43883056640625,-0.032808590680360794,0.1186409741640091,0.04385494440793991
1750742377257903600,3.463903564453125,-0.007410688791424036,0.06970008462667465,-0.006516401190310717
1750742377282977500,3.4889775390625,0.03410916030406952,0.008203721605241299,-0.05790756642818451
1750742377308050700,3.51405078125,0.0707850456237793,-0.09019318222999573,-0.06878217309713364
1750742377333123600,3.53912353515625,0.08102589845657349,-0.12324120849370956,-0.09802865982055664
1750742377358197800,3.56419775390625,0.018241679295897484,-0.10467751324176788,-0.16022688150405884
1750742377383270400,3.5892705078125,-0.057910896837711334,0.09411624819040298,-0.1264258176088333
1750742377408344600,3.614344482421875,-0.06505487859249115,0.19034279882907867,-0.1331280618906021
1750742377433417500,3.63941748046875,0.025489600375294685,0.13344840705394745,-0.03745508939027786
1750742377458491600,3.66449169921875,0.22732917964458466,0.23876218497753143,0.020382191985845566
1750742377483564500,3.689564453125,0.24376246333122253,0.5360759496688843,0.014644895680248737
1750742377508638700,3.714638671875,0.24796956777572632,0.36471521854400635,0.07664995640516281
1750742377533711600,3.739711669921875,0.1825750172138214,0.1924218386411667,0.15491336584091187
1750742377558784500,3.764784423828125,0.016602227464318275,0.16376201808452606,0.041855499148368835
1750742377583858400,3.7898583984375,-0.04096589609980583,0.2604542374610901,-0.049727827310562134
1750742377608931600,3.814931640625,-0.016062479466199875,0.27673831582069397,0.01018698513507843
1750742377634005500,3.840005615234375,-0.09334113448858261,0.12624448537826538,-0.13139678537845612
1750742377659078700,3.86507861328125,-0.2723703384399414,0.09537742286920547,-0.38435396552085876
1750742377684152600,3.890152587890625,-0.4155797064304352,0.18054687976837158,-0.553747832775116
1750742377709225700,3.915225830078125,-0.44082149863243103,0.1690787971019745,-0.6814784407615662
1750742377734299600,3.940299560546875,-0.4120537340641022,0.10171336680650711,-0.7082149386405945
1750742377759372500,3.96537255859375,-0.554813802242279,0.2505151927471161,-0.6636776924133301
1750742377784445400,3.990445556640625,-0.6091680526733398,0.32814472913742065,-0.5695761442184448
1750742377809519600,4.01551953125,-0.541503369808197,0.309398889541626,-0.43745720386505127
1750742377834592500,4.040592529296875,-0.27262037992477417,0.19504131376743317,-0.30506640672683716
1750742377859666700,4.065666748046875,-0.10606442391872406,0.22922305762767792,-0.2713918089866638
1750742377884739600,4.090739501953125,-0.08246195316314697,0.2580650746822357,-0.2642250061035156
1750742377909813800,4.115813720703125,-0.16952642798423767,0.29253363609313965,-0.29112115502357483
1750742377934886700,4.14088671875,-0.2926768958568573,0.29426512122154236,-0.37085843086242676
1750742377959959600,4.16595947265625,-0.3194001615047455,0.1921045035123825,-0.48656556010246277
1750742377985033500,4.191033447265625,-0.24676203727722168,0.15540874004364014,-0.5439459681510925
1750742378010106600,4.216106689453125,-0.16492462158203125,0.07817176729440689,-0.6807682514190674
1750742378035179800,4.2411796875,-0.18060989677906036,0.08902297914028168,-0.8258501291275024
1750742378060253000,4.2662529296875,-0.28139957785606384,0.11395195126533508,-1.044219732284546
1750742378085326600,4.29132666015625,-0.4101676344871521,0.06020813807845116,-1.092106819152832
1750742378110399700,4.316399658203125,-0.5154361724853516,0.04800312593579292,-1.0974595546722412
1750742378135473700,4.3414736328125,-0.49486786127090454,0.04317597299814224,-1.1547212600708008
1750742378160546800,4.366546875,-0.43448659777641296,0.14927543699741364,-1.1212539672851562
1750742378185619700,4.39161962890625,-0.48356008529663086,0.2570991814136505,-1.087955355644226
1750742378210694000,4.41669384765625,-0.5295970439910889,0.3684730529785156,-0.9661715626716614
1750742378235766800,4.441766845703125,-0.5320473313331604,0.32302016019821167,-0.9089846611022949
1750742378260841000,4.466841064453125,-0.5106339454650879,0.32651281356811523,-0.8530564308166504
1750742378285913600,4.49191357421875,-0.48701635003089905,0.24854780733585358,-0.7266748547554016
1750742378310987800,4.51698779296875,-0.45990821719169617,0.1675831377506256,-0.567201554775238
1750742378336060700,4.542060791015625,-0.3928295969963074,0.195279061794281,-0.41356343030929565
1750742378361133800,4.5671337890625,-0.4051358699798584,0.18576602637767792,-0.32995882630348206
1750742378386207700,4.592207763671875,-0.44214585423469543,0.161122664809227,-0.167201966047287
1750742378411281000,4.617281005859375,-0.4140796661376953,0.1364692598581314,0.030231395736336708
1750742378436354800,4.642354736328125,-0.4080044627189636,0.06784572452306747,0.1669146716594696
1750742378461427700,4.667427734375,-0.49618586897850037,0.0358697772026062,0.24233107268810272
1750742378486501600,4.692501708984375,-0.6245560050010681,-0.08168394863605499,0.40559181571006775
1750742378511574800,4.71757470703125,-0.6674327850341797,-0.13114424049854279,0.5428982973098755
1750742378536647700,4.742647705078125,-0.6256481409072876,-0.11765493452548981,0.5373875498771667
1750742378561721900,4.767721923828125,-0.6756019592285156,0.02160150744020939,0.3888048827648163
1750742378586794800,4.792794677734375,-0.5484549403190613,-0.1126488521695137,0.3060368299484253
1750742378611869000,4.817868896484375,-0.2175268828868866,-0.1277199387550354,0.15822677314281464
1750742378636941600,4.842941650390625,0.045756302773952484,0.0014367698458954692,0.07035284489393234
1750742378662015700,4.868015625,0.1345391571521759,0.10817907750606537,0.00790475681424141
1750742378687088600,4.893088623046875,0.054947108030319214,0.01790134608745575,-0.034125298261642456
1750742378712162800,4.918162841796875,0.013283167034387589,-0.11715586483478546,-0.07130745053291321
1750742378737235700,4.943235595703125,0.07007141411304474,-0.1557038277387619,0.008741339668631554
1750742378762308900,4.968308837890625,0.10662093013525009,-0.051951922476291656,0.05664914473891258
1750742378787382800,4.9933828125,0.08901326358318329,-0.0035358150489628315,0.021841593086719513
1750742378812456000,5.0184560546875,-0.04932127520442009,0.01767144538462162,0.04806775227189064
1750742378837529900,5.04352978515625,-0.11776866018772125,-0.037151798605918884,0.05466882884502411
1750742378862602800,5.068602783203125,-0.16461089253425598,-0.14340700209140778,0.08872640877962112
1750742378887676700,5.0936767578125,-0.12003883719444275,-0.01750994101166725,0.13291585445404053
1750742378912749800,5.118749755859375,-0.0741533637046814,0.06996489316225052,0.12926560640335083
1750742378937823700,5.14382373046875,-0.06908068805932999,0.08547701686620712,0.07587651908397675
1750742378962897000,5.16889697265625,-0.05917975306510925,-0.056992221623659134,0.0761546716094017
1750742378987969800,5.1939697265625,0.030347168445587158,-0.019341202452778816,0.09299948811531067
1750742379013044000,5.2190439453125,0.12822085618972778,-0.02515707165002823,0.12414517253637314
1750742379038116900,5.244116943359375,0.1865476667881012,0.020138947293162346,0.07898999750614166
1750742379063191000,5.26919091796875,0.13965196907520294,-0.1056719645857811,0.05802445858716965
1750742379088263700,5.294263671875,0.08350399881601334,-0.14200976490974426,0.022685062140226364
1750742379113337900,5.319337890625,0.025476697832345963,-0.2049400806427002,0.06674305349588394
1750742379138410800,5.34441064453125,-0.017652995884418488,-0.2148163616657257,0.15254874527454376
1750742379163485000,5.36948486328125,-0.005171989556401968,-0.1996435970067978,0.2501031160354614
1750742379188557800,5.394557861328125,-0.021861055865883827,-0.13189385831356049,0.2409696877002716
1750742379213631700,5.4196318359375,-0.04995866119861603,-0.1351245939731598,0.27748847007751465
1750742379238705000,5.444704833984375,-0.04234413430094719,-0.1446171998977661,0.23258042335510254
1750742379263777800,5.46977783203125,-0.037903957068920135,-0.14758889377117157,0.18234200775623322
1750742379288851700,5.494851806640625,-0.04412577301263809,-0.13260258734226227,0.14819687604904175
1750742379313924900,5.5199248046875,-0.060291141271591187,-0.16124698519706726,0.07866685092449188
1750742379338998800,5.544998779296875,-0.04176567494869232,-0.14816708862781525,0.024829670786857605
1750742379364072000,5.570072021484375,-0.06400960683822632,-0.11421073228120804,0.011221615597605705
1750742379389145900,5.595145751953125,-0.06081247702240944,-0.008743049576878548,0.08103707432746887
1750742379414219000,5.620218994140625,-0.03687279671430588,0.08911202847957611,0.029380645602941513
1750742379439293000,5.64529296875,-0.09210611134767532,0.15414609014987946,0.033573001623153687
1750742379464365800,5.67036572265625,-0.12513038516044617,0.11480581015348434,0.02278107777237892
1750742379489439700,5.695439697265625,-0.17076227068901062,0.03738192841410637,0.02599373832345009
1750742379514513000,5.720512939453125,-0.17886137962341309,0.024359511211514473,0.09850066155195236
1750742379539586800,5.7455869140625,-0.1432913988828659,0.02059897780418396,0.1943730115890503
1750742379564659700,5.77065966796875,-0.14429236948490143,0.15420305728912354,0.19374504685401917
1750742379589734000,5.79573388671875,-0.1664697825908661,0.17662477493286133,0.13964414596557617
1750742379614806800,5.820806884765625,-0.1641269475221634,0.05129050835967064,0.07929454743862152
1750742379639880000,5.8458798828125,-0.1265178769826889,-0.05885687097907066,0.07659146189689636
1750742379664953900,5.870953857421875,-0.0910133495926857,-0.00776310870423913,0.12579099833965302
1750742379690026800,5.89602685546875,-0.06769760698080063,0.06344091147184372,0.11431537568569183
1750742379715100700,5.9211005859375,-0.004523666109889746,0.012971950694918633,0.07551001012325287
1750742379740173800,5.946173828125,0.05797402933239937,-0.07604161649942398,0.026729866862297058
1750742379765247700,5.971247802734375,0.06037518009543419,-0.1175643727183342,-0.03515056148171425
1750742379790321000,5.99632080078125,0.05556442216038704,-0.1643059402704239,-0.040819570422172546
1750742379815394800,6.021394775390625,0.07412657141685486,-0.22430507838726044,-0.030816812068223953
1750742379840468000,6.046468017578125,0.07001036405563354,-0.23297609388828278,0.04290556535124779
1750742379865542000,6.0715419921875,0.04415830969810486,-0.21069510281085968,0.11608123034238815
1750742379890614800,6.09661474609375,0.03538484871387482,-0.09460034966468811,0.07319914549589157
1750742379915688700,6.121688720703125,0.01756991818547249,-0.009707795456051826,-0.058645397424697876
1750742379940761900,6.146761962890625,-0.018360955640673637,-0.02879047952592373,-0.07266277074813843
1750742379965835800,6.171835693359375,-0.03487943485379219,-0.07325949519872665,-0.04468041658401489
1750742379990909000,6.196908935546875,-0.09818048775196075,-0.013171792030334473,-0.023294180631637573
1750742380015982800,6.22198291015625,-0.12506970763206482,0.1389230191707611,-0.02673494443297386
1750742380041056300,6.24705615234375,-0.14221493899822235,0.1253662407398224,-0.08559296280145645
1750742380066130200,6.272130126953125,-0.19016678631305695,0.0727822557091713,-0.08644058555364609
1750742380091203300,6.297203369140625,-0.19957490265369415,-0.026085058227181435,0.03405966982245445
1750742380116277200,6.32227734375,-0.15492382645606995,-0.09620095789432526,0.12425120174884796
1750742380141350100,6.34735009765625,-0.14248938858509064,0.00046195933828130364,0.18636979162693024
1750742380166423000,6.372423095703125,-0.11793994158506393,-0.0048935292288661,0.13685162365436554
1750742380191497000,6.3974970703125,-0.1020113080739975,-0.13909535109996796,-0.01195954717695713
1750742380216570000,6.422570068359375,-0.08042982965707779,-0.1912514567375183,-0.012145125307142735
1750742380241644000,6.44764404296875,-0.034612786024808884,-0.16692344844341278,0.07226141542196274
1750742380266717200,6.47271728515625,-0.019311344251036644,-0.0027167005464434624,0.10392608493566513
1750742380291791000,6.497791015625,0.005617201328277588,0.08402454853057861,0.06150851771235466
1750742380316864300,6.5228642578125,-0.017129501327872276,-0.024830246344208717,-0.06595969945192337
1750742380341938200,6.547938232421875,-0.029403753578662872,-0.12576442956924438,-0.10596826672554016
1750742380367011000,6.573010986328125,-0.04954857379198074,-0.09612221270799637,-0.07506674528121948
1750742380392085000,6.5980849609375,-0.10214519500732422,0.015370873734354973,0.0343877412378788
1750742380417158100,6.623158203125,-0.14760887622833252,0.06789644807577133,0.13339339196681976
1750742380442232000,6.648232177734375,-0.1664460301399231,0.030826512724161148,0.1374015212059021
1750742380467305200,6.67330517578125,-0.1983136236667633,-0.0007954132161103189,0.10314526408910751
1750742380492379100,6.698379150390625,-0.18567228317260742,-0.056049175560474396,0.08629709482192993
1750742380517452300,6.723452392578125,-0.19134710729122162,-0.1298096477985382,0.0690455213189125
1750742380542526200,6.748526123046875,-0.2190731167793274,-0.06568452715873718,0.1508701890707016
1750742380567599000,6.77359912109375,-0.1841789186000824,-0.012055981904268265,0.18586529791355133
1750742380592673000,6.798673095703125,-0.12412369251251221,0.06690790504217148,0.11583314836025238
1750742380617746200,6.82374609375,-0.07059726864099503,0.08835966140031815,0.024603448808193207
1750742380642820000,6.848820068359375,-0.04205935075879097,-0.06430815160274506,-0.057737983763217926
1750742380667893200,6.873893310546875,-0.05012129619717598,-0.06230780482292175,-0.03935597091913223
1750742380692967200,6.89896728515625,-0.06004384532570839,0.022731170058250427,-0.025130122900009155
1750742380718040300,6.924040283203125,-0.07283253967761993,0.04679396003484726,-0.05066671222448349
1750742380743114200,6.9491142578125,-0.07393912225961685,0.035901982337236404,-0.02296076901257038
1750742380768187100,6.974187255859375,-0.04827002435922623,0.10729315876960754,0.010647538118064404
1750742380793261000,6.999260986328125,-0.083173468708992,0.2123899906873703,0.0033367485739290714
1750742380818334200,7.024334228515625,-0.049495890736579895,0.23010365664958954,-0.027585230767726898
1750742380843408100,7.049408203125,-0.033190544694662094,0.21833328902721405,0.0013046967796981335
1750742380868481300,7.074481201171875,-0.16526128351688385,0.17000913619995117,0.13950130343437195
1750742380893555200,7.09955517578125,-0.1296008676290512,0.15683500468730927,0.24921010434627533
1750742380918628000,7.124628173828125,-0.09395492821931839,0.2129688709974289,0.1989865005016327
1750742380943702300,7.149702392578125,-0.22754068672657013,0.36588749289512634,0.14684806764125824
1750742380968775200,7.174775146484375,-0.1718716323375702,-0.03828435391187668,0.09891073405742645
1750742380993849300,7.199849365234375,-0.2067263275384903,-0.20779705047607422,0.016872191801667213
1750742381018922000,7.224921875,-0.25129881501197815,0.2992052733898163,0.04724647477269173
1750742381043996000,7.249995849609375,-0.16334523260593414,0.231808140873909,0.09307152777910233
1750742381069068800,7.27506884765625,-0.12116175889968872,0.12333143502473831,0.1080062985420227
1750742381094143000,7.30014306640625,-0.10142754763364792,0.38582202792167664,0.09001193940639496
1750742381119215900,7.3252158203125,-0.08828090876340866,0.2731381356716156,0.018728947266936302
1750742381144290000,7.3502900390625,-0.040982771664857864,-0.0012946559581905603,0.04097187519073486
1750742381169363000,7.375363037109375,-0.0808655396103859,0.03862857446074486,-0.015348952263593674
1750742381194437000,7.40043701171875,-0.11619304865598679,0.12529481947422028,0.11419269442558289
1750742381219510800,7.4255107421875,0.16493484377861023,0.08102800697088242,0.12626273930072784
1750742381244584000,7.450583984375,0.33448857069015503,0.48197999596595764,0.010640658438205719
1750742381269657900,7.475657958984375,0.22023332118988037,0.773311972618103,-0.09417648613452911
1750742381294731000,7.50073095703125,0.033547334372997284,-0.19445490837097168,-0.4829583168029785
1750742381319805000,7.525804931640625,-0.04760928824543953,-0.47420787811279297,-0.2978140115737915
1750742381344878000,7.550878173828125,-0.17592045664787292,0.06785322725772858,0.25902044773101807
1750742381369952000,7.575951904296875,-0.20649078488349915,0.4846273362636566,0.5073334574699402
1750742381395025000,7.60102490234375,-0.19885744154453278,0.48895177245140076,0.2945777177810669
1750742381420099000,7.62609912109375,-0.07416509091854095,0.2232227772474289,0.004417385905981064
1750742381445171700,7.651171630859375,0.17859722673892975,-0.03319654241204262,-0.15519092977046967
1750742381470246000,7.676245849609375,0.2820609211921692,0.042040131986141205,-0.16371075809001923
1750742381495318800,7.70131884765625,0.25333601236343384,0.22914130985736847,0.04109664261341095
1750742381520393000,7.72639306640625,0.18664035201072693,0.22172802686691284,0.1071094200015068
1750742381545465900,7.7514658203125,0.14004004001617432,0.11969362199306488,0.017967578023672104
1750742381570540000,7.7765400390625,0.17226065695285797,-0.10361643880605698,-0.13286234438419342
1750742381595613000,7.801613037109375,0.17983053624629974,-0.23432306945323944,-0.15627959370613098
1750742381620687000,7.82668701171875,0.17552608251571655,-0.16327346861362457,-0.05947514623403549
1750742381645759700,7.851759765625,0.15738408267498016,-0.11133289337158203,0.06805361807346344
1750742381670834000,7.876833984375,0.12875692546367645,-0.14470237493515015,0.1933446079492569
1750742381695906800,7.90190673828125,0.15830102562904358,-0.23300620913505554,0.2485649734735489
1750742381720981000,7.92698095703125,0.2677856385707855,-0.2532750964164734,0.2715036869049072
1750742381746055000,7.952054931640625,0.41607972979545593,-0.2023588865995407,0.2653839886188507
1750742381771128000,7.977128173828125,0.4796160161495209,-0.028650162741541862,0.13047489523887634
1750742381796202000,8.002201904296875,0.4446544349193573,0.0036199064925312996,-0.04187773913145065
1750742381821275000,8.02727490234375,0.397126168012619,-0.2117302417755127,-0.12854278087615967
1750742381846349000,8.05234912109375,0.2842288315296173,-0.17598694562911987,0.003463515779003501
1750742381871421700,8.077421630859375,0.21953155100345612,-0.03664075955748558,0.18498259782791138
1750742381896495900,8.102495849609374,0.16954180598258972,0.14884746074676514,0.23707811534404755
1750742381921568800,8.12756884765625,0.16537655889987946,0.19657082855701447,0.18165716528892517
1750742381946643000,8.152642822265625,0.22375045716762543,0.08085973560810089,0.12790146470069885
1750742381971715800,8.1777158203125,0.26417288184165955,0.17712020874023438,0.1261223554611206
1750742381996790000,8.2027900390625,0.2805023491382599,0.34241512417793274,0.11553274840116501
1750742382021863000,8.22786279296875,0.29488521814346313,0.3758935332298279,0.07327961921691895
1750742382046937000,8.25293701171875,0.3006434440612793,0.28869158029556274,0.0409030020236969
1750742382072010000,8.278010009765625,0.2785368859767914,0.3375149071216583,0.009724861942231655
1750742382097084200,8.303084228515624,0.3192741274833679,0.4182150065898895,-0.053080663084983826
1750742382122158000,8.328157958984375,0.3598420321941376,0.457645058631897,-0.13169944286346436
1750742382147231000,8.35323095703125,0.3539958596229553,0.4490361213684082,-0.22460195422172546
1750742382172305200,8.37830517578125,0.33797401189804077,0.4350602328777313,-0.2296328842639923
1750742382197378000,8.4033779296875,0.31763947010040283,0.5588940382003784,-0.14571933448314667
1750742382222452000,8.428451904296875,0.2843969464302063,0.6498157978057861,-0.14605624973773956
1750742382247524900,8.45352490234375,0.2809867560863495,0.4903174638748169,-0.2188359498977661
1750742382272599000,8.47859912109375,0.33962947130203247,0.3177740275859833,-0.20324566960334778
1750742382297672000,8.503671875,0.39471855759620667,0.3625999093055725,-0.18105639517307281
1750742382322746000,8.52874609375,0.4498250186443329,0.4272783398628235,-0.2367727905511856
1750742382347819000,8.553819091796875,0.4376477301120758,0.34330087900161743,-0.30337634682655334
1750742382372893200,8.57889306640625,0.4001726806163788,0.24024002254009247,-0.33825716376304626
1750742382397966000,8.603966064453125,0.3963397145271301,0.28596311807632446,-0.37060776352882385
1750742382423040300,8.629040283203125,0.34706735610961914,0.39759308099746704,-0.4796665608882904
1750742382448114000,8.654114013671874,0.3792199492454529,0.3223326504230499,-0.5472288727760315
1750742382473187000,8.67918701171875,0.40294983983039856,0.29821938276290894,-0.46069949865341187
1750742382498261000,8.704260986328125,0.3757070004940033,0.42929044365882874,-0.30554449558258057
1750742382523334100,8.729334228515626,0.32993456721305847,0.5386368632316589,-0.2531248927116394
1750742382548408000,8.754407958984375,0.3162616789340973,0.37253478169441223,-0.2760215401649475
1750742382573481000,8.77948095703125,0.34279075264930725,0.2571682631969452,-0.29752516746520996
1750742382598555100,8.80455517578125,0.3588631749153137,0.22232367098331451,-0.34138596057891846
1750742382623628000,8.8296279296875,0.4178178012371063,0.14938996732234955,-0.3844358026981354
1750742382648702200,8.8547021484375,0.43889451026916504,0.15274693071842194,-0.3399543762207031
1750742382673774800,8.87977490234375,0.4123077094554901,0.2729385793209076,-0.23219606280326843
1750742382698849000,8.90484912109375,0.37195420265197754,0.3265451490879059,-0.25487637519836426
1750742382723923000,8.9299228515625,0.3551560044288635,0.17737248539924622,-0.35927844047546387
1750742382748996000,8.95499609375,0.3695063292980194,0.06484930962324142,-0.35773345828056335
1750742382774070000,8.980070068359375,0.3847019076347351,0.15040622651576996,-0.25509005784988403
1750742382799143200,9.00514306640625,0.441830039024353,0.2879321575164795,-0.14833474159240723
1750742382824217000,9.030217041015625,0.4199751913547516,0.2661949694156647,-0.23581941425800323
1750742382849290200,9.055290283203124,0.3490321934223175,-0.0023962354753166437,-0.37165501713752747
1750742382874364200,9.0803642578125,0.4110719859600067,-0.15652814507484436,-0.38709598779678345
1750742382899437000,9.10543701171875,0.438446581363678,0.1302209198474884,-0.2308698445558548
1750742382924511000,9.130510986328124,0.4435725212097168,0.409604549407959,-0.10104463994503021
1750742382949584100,9.155584228515625,0.4517030119895935,0.25949403643608093,-0.3190925717353821
1750742382974658000,9.180657958984375,0.4561821520328522,-0.050176091492176056,-0.578598141670227
1750742382999732000,9.20573193359375,0.45859307050704956,-0.09388494491577148,-0.5013089776039124
1750742383024805000,9.23080517578125,0.41464388370513916,0.007381875533610582,-0.3256566524505615
1750742383049878800,9.255878662109374,0.3203437030315399,0.15768247842788696,-0.25236278772354126
1750742383074952000,9.280951904296876,0.2843868136405945,0.06934531033039093,-0.2685990631580353
1750742383100025900,9.30602587890625,0.28613317012786865,-0.05987231060862541,-0.23096796870231628
1750742383125099000,9.33109912109375,0.2736145555973053,-0.06288158893585205,-0.133626788854599
1750742383150173000,9.3561728515625,0.21921582520008087,-0.012154167518019676,-0.08476344496011734
1750742383175246000,9.38124609375,0.18539859354496002,-0.013992291875183582,-0.08035748451948166
1750742383200320000,9.406320068359374,0.17149558663368225,0.0532233752310276,-0.09693145006895065
1750742383225394000,9.431393798828125,0.16299530863761902,0.2639542520046234,-0.1850421279668808
1750742383250467000,9.456467041015625,0.14249995350837708,0.39413899183273315,-0.29531896114349365
1750742383275541000,9.481541015625,0.13199365139007568,0.23896394670009613,-0.3443490266799927
1750742383300614000,9.50661376953125,0.07528362423181534,-0.00382801191881299,-0.20433753728866577
1750742383325687800,9.531687744140624,0.03624105453491211,-0.12382268905639648,0.055037323385477066
1750742383350761000,9.556760986328126,0.022623589262366295,-0.07078950107097626,0.2755824029445648
1750742383375835000,9.5818349609375,0.06583908945322037,-0.08044686168432236,0.32866764068603516
1750742383400908000,9.606907958984374,0.14043258130550385,-0.1460537612438202,0.1732298582792282
1750742383425982000,9.63198193359375,0.18552283942699432,-0.14651010930538177,0.00013440195471048355
1750742383451056000,9.65705615234375,0.25988736748695374,-0.16708005964756012,-0.052734896540641785
1750742383476129000,9.68212890625,0.29986992478370667,-0.12776251137256622,-0.05419807881116867
1750742383501203000,9.707202880859375,0.2921525537967682,-0.0009909464279189706,-0.02647806704044342
1750742383526275800,9.73227587890625,0.3290519416332245,0.052273835986852646,-0.042371585965156555
1750742383551349800,9.757349853515626,0.35034096240997314,0.12693457305431366,-0.14129282534122467
1750742383576423000,9.7824228515625,0.295281320810318,0.1330285221338272,-0.2922259569168091
1750742383601496800,9.807496826171874,0.21064038574695587,-0.03566823527216911,-0.35691535472869873
1750742383626571000,9.832571044921876,0.14114631712436676,-0.09580789506435394,-0.29564258456230164
1750742383651644000,9.857643798828125,0.07276245206594467,0.021334780380129814,-0.16566072404384613
1750742383676718000,9.882718017578124,-0.02997923642396927,0.12636281549930573,-0.04432997852563858
1750742383701791000,9.907791015625,-0.09983421862125397,0.11113373935222626,-0.02251029759645462
1750742383726865200,9.932865234375,-0.09968337416648865,0.06160349398851395,-0.03286135196685791
1750742383751937800,9.957937744140626,-0.07512122392654419,0.06695183366537094,0.010240256786346436
1750742383777012000,9.983011962890625,-0.010799898765981197,0.043757542967796326,0.017884787172079086
1750742383802086000,10.0080859375,0.04365735501050949,0.06402935832738876,0.0053130039013922215
1750742383827159000,10.033158935546876,0.08040472865104675,0.12192384898662567,0.016751855611801147
1750742383852233000,10.05823291015625,0.09585115313529968,0.13383136689662933,0.008478021249175072
1750742383877306000,10.08330615234375,0.08034376055002213,0.09507370740175247,-0.0026744012720882893
1750742383902380000,10.108380126953126,0.07728178799152374,0.05792376771569252,0.03528942912817001
1750742383927453000,10.133452880859375,0.07641341537237167,0.036197688430547714,0.0607256218791008
1750742383952527000,10.158527099609374,0.09083593636751175,0.06558245420455933,0.008045246824622154
1750742383977601000,10.18360107421875,0.0859350860118866,0.09465828537940979,-0.06696680188179016
1750742384002674000,10.208673828125,0.07792364060878754,0.05054755508899689,-0.07689588516950607
1750742384027747800,10.233747802734374,0.11281237006187439,0.10445861518383026,-0.06064677983522415
1750742384052820700,10.25882080078125,0.13523127138614655,0.21861521899700165,-0.02205773815512657
1750742384077894700,10.283894775390625,0.15171821415424347,0.1732484996318817,-0.06539537757635117
1750742384102968600,10.308968505859376,0.17999468743801117,0.0003058410657104105,-0.13358962535858154
1750742384128041700,10.334041748046875,0.21934592723846436,-0.023384815081954002,-0.14918631315231323
1750742384153115600,10.35911572265625,0.22508125007152557,0.07649320363998413,-0.09073537588119507
1750742384178188800,10.384188720703126,0.2074647694826126,0.12553279101848602,-0.08799667656421661
1750742384203262700,10.4092626953125,0.19440044462680817,0.11786337196826935,-0.09098045527935028
1750742384228335900,10.4343359375,0.18537768721580505,0.011439538560807705,-0.13496726751327515
1750742384253409800,10.459409912109376,0.1640930473804474,-0.060298021882772446,-0.048677146434783936
1750742384278484000,10.48448388671875,0.2578384280204773,0.008115015923976898,0.02101307548582554
1750742384303556600,10.509556640625,0.16027022898197174,0.1291695088148117,-0.15764573216438293
1750742384328630800,10.534630859375,0.10603506863117218,-0.04660431668162346,-0.21566614508628845
1750742384353703700,10.55970361328125,0.11899641156196594,-0.07409799844026566,-0.22247664630413055
1750742384378777900,10.58477783203125,-0.0072211604565382,0.13450291752815247,-0.09798499941825867
1750742384403851800,10.609851806640625,0.04215288162231445,0.2791716754436493,0.02764774300158024
1750742384428924700,10.634924560546875,0.050927549600601196,0.13128310441970825,-0.005663266871124506
1750742384453998800,10.659998779296876,0.06583625078201294,0.1008266806602478,0.01224985346198082
1750742384479071700,10.68507177734375,0.012973373755812645,-0.05016587674617767,0.004855219274759293
1750742384504146000,10.71014599609375,0.09899593889713287,-0.08880326896905899,0.09299030154943466
1750742384529219800,10.7352197265625,0.23687520623207092,0.03285697475075722,0.014501405879855156
1750742384554292700,10.760292724609375,0.10567817836999893,0.1392333209514618,-0.04293984919786453
1750742384579366700,10.78536669921875,0.11885436624288559,-0.255601167678833,-0.1347411721944809
1750742384604439800,10.810439697265625,0.08911687880754471,-0.19441252946853638,-0.10952088981866837
1750742384629513700,10.835513671875,0.166670024394989,0.45508626103401184,0.0752563625574112
1750742384654587600,10.860587646484374,0.14903514087200165,0.5666784048080444,0.09851063787937164
1750742384679660800,10.885660888671875,0.0015927369240671396,0.17953461408615112,-0.11462148278951645
1750742384704734700,10.910734619140625,0.021941151469945908,-0.2665928602218628,-0.33280694484710693
1750742384729808000,10.935807861328126,-0.09750145673751831,-0.31223416328430176,-0.03719219192862511
1750742384754881800,10.9608818359375,0.0003936818102374673,-0.1341373771429062,0.23320946097373962
1750742384779956000,10.9859560546875,0.2064674347639084,0.1251440793275833,0.11207426339387894
1750742384805028600,11.011028564453126,0.3632776737213135,0.5051650404930115,0.0224597230553627
1750742384830102800,11.036102783203125,0.23907935619354248,0.33806782960891724,-0.2911083996295929
1750742384855175700,11.06117578125,0.11404839158058167,-0.12702316045761108,-0.37158867716789246
1750742384880249900,11.086249755859376,0.3246704339981079,-0.1716584414243698,-0.22108522057533264
1750742384905323800,11.11132373046875,0.25216934084892273,0.4751559793949127,-0.03603014349937439
1750742384930396700,11.136396728515624,-0.09433921426534653,0.8883516192436218,0.08086548000574112
1750742384955470800,11.161470947265625,-0.044779472053050995,-0.2860179543495178,-0.3886618912220001
1750742384980544800,11.186544677734375,-0.031409770250320435,-0.5204864144325256,-0.37180063128471375
1750742385005618000,11.211617919921874,-0.09972644597291946,0.2816467583179474,0.32306167483329773
1750742385030691800,11.23669189453125,0.06980085372924805,0.636282205581665,0.27233898639678955
1750742385055765500,11.261765625,0.23146754503250122,0.4360685646533966,-0.006147039122879505
1750742385080839400,11.28683935546875,0.3431873023509979,0.024620428681373596,-0.18608061969280243
1750742385105913300,11.311913330078125,0.39953041076660156,-0.2883850932121277,-0.23207290470600128
1750742385130986500,11.336986572265625,0.34790319204330444,-0.1311865895986557,-0.04489777982234955
1750742385156060400,11.362060302734376,0.3068746030330658,0.12609237432479858,0.16260439157485962
1750742385181133600,11.387133544921875,0.18308855593204498,0.24694550037384033,0.07043775171041489
1750742385206207500,11.41220751953125,0.08289440721273422,0.056093983352184296,-0.03759104013442993
1750742385231281400,11.437281494140626,0.11846451461315155,-0.13371272385120392,-0.172469824552536
1750742385256354600,11.4623544921875,0.10698670148849487,0.16388332843780518,-0.13103599846363068
1750742385281428200,11.48742822265625,0.12882421910762787,0.4306609332561493,-0.01843308098614216
1750742385306502400,11.51250244140625,0.15091584622859955,0.28173768520355225,-0.08138193935155869
1750742385331575300,11.5375751953125,0.15673083066940308,0.15128737688064575,-0.20905302464962006
1750742385356649500,11.5626494140625,0.22176049649715424,0.08756880462169647,-0.2446243017911911
1750742385381722400,11.587722412109375,0.2421351671218872,-0.01698605716228485,-0.14788442850112915
1750742385406796500,11.612796630859375,0.1766919046640396,0.045429397374391556,-0.02664489857852459
1750742385431870500,11.637870361328124,0.02533065713942051,0.0787406638264656,-0.04040279611945152
1750742385456943600,11.662943603515625,0.05295823886990547,0.08686711639165878,-0.01388968713581562
1750742385482017500,11.688017578125,0.1971885710954666,0.2497798204421997,0.02381247468292713
1750742385507091500,11.713091552734374,0.31517186760902405,0.5280036926269531,0.18813751637935638
1750742385532164400,11.738164306640625,0.11937155574560165,0.34569665789604187,-0.1442507803440094
1750742385557238300,11.76323828125,-0.02889283373951912,-0.26009291410446167,-0.36352822184562683
1750742385582311400,11.7883115234375,-0.0034610943403095007,-0.26058754324913025,-0.13200834393501282
1750742385607385300,11.81338525390625,-0.014861653558909893,0.16733404994010925,0.4945032596588135
1750742385632459500,11.83845947265625,0.09520041942596436,0.6257730722427368,0.611753523349762
1750742385657532400,11.863532470703126,0.2080109417438507,0.3892139196395874,-0.03262236341834068
1750742385682606300,11.8886064453125,0.3429662883281708,-0.20254141092300415,-0.4400984048843384
1750742385707680500,11.913680419921874,0.47009116411209106,-0.38254624605178833,-0.32085296511650085
1750742385732753400,11.93875341796875,0.45287859439849854,0.001125480979681015,-0.0016910103149712086
1750742385757827600,11.96382763671875,0.35831138491630554,0.3571803569793701,0.22446417808532715
1750742385782900500,11.988900390625,0.3060878813266754,0.19776089489459991,0.1594977229833603
1750742385807974400,12.013974365234375,0.32234987616539,-0.09449488669633865,-0.02395867556333542
1750742385833048300,12.03904833984375,0.3602876663208008,-0.1485985666513443,-0.10750247538089752
1750742385858121500,12.06412158203125,0.3386286199092865,-0.08992326259613037,-0.14086157083511353
1750742385883195400,12.0891953125,0.3054780960083008,0.006872681900858879,-0.1048443615436554
1750742385908269300,12.114269287109375,0.35103875398635864,0.0626363679766655,-0.083183154463768
1750742385933342500,12.139342529296876,0.3755670189857483,0.13454623520374298,-0.07904833555221558
1750742385958416400,12.16441650390625,0.3978458642959595,0.1340402513742447,-0.08942275494337082
1750742385983489500,12.189489501953124,0.4203200042247772,0.024365387856960297,-0.1191663071513176
1750742386008563500,12.2145634765625,0.3734794557094574,0.05100663751363754,-0.08422593772411346
1750742386033637600,12.2396376953125,0.3131956160068512,0.1471020132303238,-0.07052130997180939
1750742386058710300,12.264710205078124,0.2797611951828003,0.15314620733261108,-0.13569749891757965
1750742386083784400,12.289784423828126,0.2842489182949066,0.16745179891586304,-0.18701831996440887
1750742386108858400,12.3148583984375,0.2639833688735962,0.2568853795528412,-0.19629979133605957
1750742386133931500,12.339931640625,0.2704385817050934,0.24668516218662262,-0.17549414932727814
1750742386159005400,12.36500537109375,0.26658427715301514,0.15410040318965912,-0.16155904531478882
1750742386184079000,12.3900791015625,0.2572890818119049,0.11395201832056046,-0.13379940390586853
1750742386209152300,12.41515234375,0.28715255856513977,0.10620520263910294,-0.1730627715587616
1750742386234226200,12.44022607421875,0.30146095156669617,0.09409292787313461,-0.20867350697517395
1750742386259299300,12.46529931640625,0.2679797112941742,0.12843821942806244,-0.1657325178384781
1750742386284373200,12.490373291015626,0.2510503828525543,0.15069063007831573,-0.14573465287685394
1750742386309447200,12.515447265625,0.2537924647331238,0.1895235776901245,-0.14410963654518127
1750742386334520300,12.540520263671874,0.24596774578094482,0.22016800940036774,-0.1617252379655838
1750742386359594200,12.56559423828125,0.25881630182266235,0.19121059775352478,-0.20292502641677856
1750742386384668400,12.59066845703125,0.2741226255893707,0.12386123090982437,-0.2136683613061905
1750742386409741300,12.6157412109375,0.2801940441131592,0.10778894275426865,-0.16817370057106018
1750742386434815200,12.640815185546876,0.28929969668388367,0.14853252470493317,-0.17153924703598022
1750742386459888000,12.66588818359375,0.2965978980064392,0.13446785509586334,-0.19649101793766022
1750742386484962300,12.69096240234375,0.3170100450515747,0.1289653182029724,-0.2006034553050995
1750742386510036200,12.7160361328125,0.3358966112136841,0.16130633652210236,-0.20718567073345184
1750742386535109400,12.741109375,0.34661388397216797,0.24372442066669464,-0.2322511076927185
1750742386560183300,12.766183349609374,0.36952629685401917,0.19275732338428497,-0.29823559522628784
1750742386585257200,12.79125732421875,0.3750435411930084,0.11843214929103851,-0.3013763427734375
1750742386610330400,12.816330322265625,0.3411034643650055,0.13745298981666565,-0.23683257400989532
1750742386635404300,12.841404296875,0.30033665895462036,0.14552737772464752,-0.19345949590206146
1750742386660478500,12.866478515625,0.2877333462238312,0.14793412387371063,-0.1714901179075241
1750742386685551400,12.89155126953125,0.27194464206695557,0.12245363742113113,-0.16187937557697296
1750742386710625300,12.916625244140626,0.22949562966823578,0.07183980196714401,-0.1618124097585678
1750742386735699200,12.94169921875,0.18404334783554077,0.058591485023498535,-0.1635957807302475
1750742386760772400,12.9667724609375,0.1846291869878769,0.06753662973642349,-0.10979743301868439
1750742386785846300,12.99184619140625,0.19208183884620667,0.16135887801647186,-0.05681341886520386
1750742386810919200,13.016919189453125,0.19707049429416656,0.20632252097129822,-0.1003912016749382
1750742386835993300,13.041993408203124,0.24616290628910065,0.12075336277484894,-0.1552201807498932
1750742386861067300,13.0670673828125,0.2802206575870514,0.06184165179729462,-0.1229572668671608
1750742386886140400,13.092140380859375,0.26867303252220154,0.11804955452680588,-0.09368287771940231
1750742386911214300,13.11721435546875,0.2822531759738922,0.11753223836421967,-0.16022998094558716
1750742386936288300,13.142288330078125,0.26429352164268494,0.007543128915131092,-0.19908908009529114
1750742386961361200,13.167361083984375,0.227104052901268,-0.04531156271696091,-0.15576957166194916
1750742386986435000,13.19243505859375,0.22450122237205505,0.05545649304986,-0.08069498091936111
1750742387011509200,13.21750927734375,0.2063462883234024,0.19568365812301636,-0.03179044649004936
1750742387036582100,13.24258203125,0.1973375380039215,0.18539273738861084,-0.07990474998950958
1750742387061656800,13.26765673828125,0.2061481922864914,0.05065368488430977,-0.15310142934322357
1750742387086730800,13.292730712890625,0.1880127638578415,0.029097700491547585,-0.16804175078868866
1750742387111803600,13.3178037109375,0.15070630609989166,0.08909209817647934,-0.16596072912216187
1750742387136877800,13.3428779296875,0.1295761615037918,0.15820267796516418,-0.16136939823627472
1750742387161950500,13.367950439453125,0.09320597350597382,0.25960755348205566,-0.1286281943321228
1750742387187024600,13.393024658203124,0.08350513130426407,0.2922709286212921,-0.12359512597322464
1750742387212098600,13.4180986328125,0.1683530956506729,0.24678319692611694,-0.12619361281394958
1750742387237171700,13.443171630859375,0.2663007378578186,0.17745478451251984,-0.15974575281143188
1750742387262245600,13.46824560546875,0.2906292676925659,0.11150486022233963,-0.18906228244304657
1750742387287319600,13.493319580078126,0.28804847598075867,0.01534255314618349,-0.18070288002490997
1750742387312392700,13.518392822265625,0.31527024507522583,-0.022790413349866867,-0.2068825215101242
1750742387337466600,13.543466552734374,0.3585273325443268,-0.010668869130313396,-0.25992730259895325
1750742387362540800,13.568540771484376,0.3269250690937042,-0.11320755630731583,-0.35557618737220764
1750742387387613700,13.59361376953125,0.33420270681381226,-0.006463991943746805,-0.40541237592697144
1750742387412688000,13.61868798828125,0.3289961814880371,0.24980735778808594,-0.3843218982219696
1750742387437761800,13.64376171875,0.3200177848339081,0.3635657727718353,-0.49936962127685547
1750742387462834700,13.668834716796875,0.3497065007686615,0.25785136222839355,-0.5706149339675903
1750742387487908600,13.69390869140625,0.37644219398498535,0.07865956425666809,-0.4085583984851837
1750742387512982500,13.718982421875,0.40791067481040955,-0.042740825563669205,-0.23406988382339478
1750742387538055700,13.7440556640625,0.38874199986457825,-0.10041751712560654,-0.13758204877376556
1750742387563129600,13.769129638671876,0.24981974065303802,0.08046523481607437,0.012028448283672333
1750742387588203800,13.794203857421875,0.09965656697750092,0.1853797882795334,0.29883548617362976
1750742387613276700,13.819276611328124,0.038169730454683304,0.15521551668643951,0.4951287508010864
1750742387638350800,13.844350830078126,0.02853885293006897,0.06579557061195374,0.5320410132408142
1750742387663424800,13.8694248046875,0.06051068380475044,0.0381171815097332,0.4275043308734894
1750742387688497700,13.89449755859375,0.13807721436023712,-0.008361012674868107,0.24653053283691406
1750742387713571800,13.91957177734375,0.11626024544239044,-0.10768445581197739,0.13880226016044617
1750742387738645800,13.944645751953125,0.25815993547439575,-0.39665287733078003,0.071967214345932
1750742387763718700,13.96971875,0.2596249282360077,-0.2895872890949249,0.0019466259982436895
1750742387788792600,13.99479248046875,0.2673550248146057,-0.20938652753829956,0.02112404629588127
1750742387813866500,14.019866455078125,0.6084575653076172,-0.006655573844909668,-0.055490538477897644
1750742387838939600,14.044939697265624,0.7270647287368774,0.8477843999862671,-0.41591590642929077
1750742387864013600,14.070013671875,0.6403844952583313,0.6105377078056335,-0.6558060050010681
1750742387889087700,14.095087646484375,0.6355849504470825,-0.28372326493263245,-0.5957930088043213
1750742387914160600,14.12016064453125,0.5324223041534424,-0.5348732471466064,0.009812458418309689
1750742387939234800,14.14523486328125,0.26214921474456787,-0.2013998180627823,0.514760434627533
1750742387964308700,14.170308837890625,-0.047821879386901855,0.10123990476131439,0.5109676718711853
1750742387989382000,14.1953818359375,-0.058782052248716354,-0.08291247487068176,0.1400594860315323
1750742388014455800,14.220455810546875,0.14597545564174652,-0.312728613615036,-0.2008199542760849
1750742388039528700,14.24552880859375,0.45351532101631165,-0.27513015270233154,-0.2843720018863678
1750742388064601300,14.270601318359375,0.5959179997444153,0.005808527581393719,-0.09697498381137848
1750742388089675500,14.295675537109375,0.48740071058273315,0.1699814647436142,0.1472410410642624
1750742388114749400,14.32074951171875,0.2593378722667694,0.2188212275505066,0.09363175928592682
1750742388139822600,14.345822509765625,-0.02502598986029625,0.010566199198365211,-0.20484405755996704
1750742388164896500,14.370896484375,-0.2635917365550995,-0.10553974658250809,-0.3878140151500702
1750742388189970400,14.395970458984374,-0.3308374583721161,-0.08630383014678955,-0.49306821823120117
1750742388215043600,14.421043701171875,-0.3063293695449829,0.17301268875598907,-0.6080253720283508
1750742388240117500,14.446117431640625,-0.32434871792793274,0.9358625411987305,-0.572623074054718
1750742388265191700,14.471191650390624,-0.23819638788700104,1.8141822814941406,-0.25787535309791565
1750742388290264600,14.4962646484375,-0.518853485584259,1.0628035068511963,-0.2710622549057007
1750742388315338500,14.52133837890625,-0.6882712244987488,-0.2960571348667145,-0.580363392829895
1750742388340412700,14.54641259765625,-0.3450165092945099,-0.4330868124961853,0.22507870197296143
1750742388365485300,14.5714853515625,-0.36978819966316223,-0.13815268874168396,0.7494627833366394
1750742388390559500,14.5965595703125,-0.17413116991519928,-0.1775292009115219,0.3380132019519806
1750742388415633400,14.62163330078125,0.18120735883712769,-0.3990385830402374,-0.10625805705785751
1750742388440706600,14.64670654296875,0.27451521158218384,-0.4541943073272705,-0.06339944154024124
1750742388465780500,14.671780517578124,0.26763811707496643,-0.4420827031135559,0.2247743010520935
1750742388490854400,14.6968544921875,0.31864216923713684,-0.14785613119602203,0.37438350915908813
1750742388515927600,14.721927490234375,0.48492223024368286,-0.025296395644545555,0.265308141708374
1750742388541001500,14.74700146484375,0.49667125940322876,0.07078595459461212,0.1946340948343277
1750742388566075600,14.77207568359375,0.3789252042770386,0.11795546859502792,0.12091988325119019
1750742388591149600,14.797149658203125,0.26257646083831787,0.16402901709079742,-0.06879530847072601
1750742388616222700,14.82222265625,0.1724979281425476,0.25084421038627625,-0.3041488528251648
1750742388641296600,14.847296630859375,0.10462503135204315,0.3424359858036041,-0.5325624346733093
1750742388666370600,14.87237060546875,0.02395492233335972,0.34146207571029663,-0.5935511589050293
1750742388691443500,14.897443359375,0.02192606031894684,0.23450744152069092,-0.5201669931411743
1750742388716517400,14.922517333984375,0.03895922005176544,0.14987172186374664,-0.396273136138916
1750742388741591600,14.947591552734375,0.07246159017086029,0.20457352697849274,-0.22694240510463715
1750742388766664400,14.97266455078125,0.08646828681230545,0.2836514413356781,-0.22399386763572693
1750742388791738600,14.997738525390625,0.01961052417755127,0.2624194920063019,-0.14324869215488434
1750742388816812500,15.0228125,-0.053804755210876465,0.162104532122612,-0.09011363983154297
1750742388841885400,15.047885498046876,-0.1194307804107666,0.00855291448533535,-0.027482718229293823
1750742388866959600,15.072959716796875,-0.15244847536087036,-0.06212390586733818,0.03154883533716202
1750742388892033500,15.098033447265625,-0.20168492197990417,-0.07902996987104416,0.07570461183786392
1750742388917106700,15.123106689453126,-0.19941380620002747,-0.15698419511318207,0.1889144778251648
1750742388942180600,15.1481806640625,-0.1495007425546646,-0.10960040986537933,0.22743935883045197
1750742388967254500,15.173254638671875,-0.16631317138671875,-0.05630014091730118,0.2205919474363327
1750742388992327400,15.198327392578125,-0.19363579154014587,-0.07261834293603897,0.13487939536571503
1750742389017401300,15.2234013671875,-0.21126903593540192,-0.12122936546802521,0.03621799871325493
1750742389042476000,15.24847607421875,-0.19829976558685303,-0.1678718626499176,0.07679696381092072
1750742389067549000,15.273548828125,-0.21639065444469452,-0.035813625901937485,0.14091645181179047
1750742389092623000,15.298623046875,-0.18076711893081665,0.02554810605943203,0.2498047798871994
1750742389117697000,15.323697021484374,-0.1632751077413559,0.07537930458784103,0.1205621138215065
1750742389142771000,15.34877099609375,-0.10398498177528381,-0.005999396089464426,0.005925571545958519
1750742389167843800,15.37384375,-0.10851706564426422,-0.017467182129621506,-0.09581202268600464
1750742389192917800,15.398917724609374,-0.1287391185760498,0.003311700653284788,-0.014314304105937481
1750742389217992000,15.423991943359376,-0.13692344725131989,0.021161498501896858,-0.00019665108993649483
1750742389243064800,15.44906494140625,-0.1417693793773651,0.032721370458602905,0.054949574172496796
1750742389268139000,15.474138916015624,-0.11914095282554626,-0.02968103624880314,0.028893545269966125
1750742389293213000,15.499212890625,-0.12922769784927368,-0.040097497403621674,0.0989849790930748
1750742389318285800,15.524285888671875,-0.12399435043334961,-0.0017228167271241546,0.10496888309717178
1750742389343360000,15.549360107421874,-0.11798517405986786,0.063017338514328,0.11727351695299149
1750742389368434000,15.574433837890625,-0.08528794348239899,0.03393002226948738,0.07388343662023544
1750742389393507800,15.5995078125,-0.059734150767326355,-0.0026688091456890106,0.0741209089756012
1750742389418581000,15.6245810546875,-0.06647080928087234,-0.030021589249372482,0.028974387794733047
1750742389443655000,15.649655029296875,-0.053523242473602295,-0.04349593073129654,0.07713465392589569
1750742389468729000,15.67472900390625,-0.022964617237448692,-0.016428347676992416,0.05228089541196823
1750742389493801700,15.6998017578125,0.008375179953873158,0.083536297082901,0.04346499219536781
1750742389518876000,15.7248759765625,-0.020215868949890137,0.12484384328126907,0.0005821294616907835
1750742389543949800,15.74994970703125,-0.022773247212171555,0.15902923047542572,0.00282412301748991
1750742389569023000,15.77502294921875,-0.019108209758996964,0.004956772550940514,0.04298950359225273
1750742389594097000,15.800096923828125,-0.007665369659662247,0.00054565304890275,0.02951653301715851
1750742389619170800,15.8251708984375,0.03669115528464317,-0.03475678339600563,0.02413622848689556
1750742389644244000,15.850243896484375,0.040750376880168915,0.019700411707162857,-0.06943146139383316
1750742389669318000,15.87531787109375,0.06612177193164825,-0.02707378938794136,-0.06110565736889839
1750742389694392000,15.90039208984375,0.027152512222528458,0.035754136741161346,-0.07327474653720856
1750742389719466000,15.925466064453126,0.011004935950040817,0.028415720909833908,-0.020675264298915863
1750742389744539100,15.9505390625,-0.03607245907187462,0.007268981076776981,0.0518290251493454
1750742389769613000,15.975613037109374,-0.04447777941823006,0.058088358491659164,0.02859424240887165
1750742389794686700,16.000686767578124,-0.020654376596212387,0.04970815032720566,0.05330381914973259
1750742389819759900,16.025759765625,-0.025835106149315834,0.0625469982624054,0.0050994623452425
1750742389844833800,16.050833740234374,0.01090405322611332,-0.09068439155817032,-0.001860033255070448
1750742389869908000,16.075907958984374,0.020310301333665848,-0.08896419405937195,0.05779759958386421
1750742389894982000,16.10098193359375,0.02857515774667263,0.0044358582235872746,-0.0015436089597642422
1750742389920055000,16.126054931640624,0.029583945870399475,0.07937397807836533,-0.016779325902462006
1750742389945129000,16.15112890625,-0.007403950206935406,0.09880528599023819,-0.08230666816234589
1750742389970203000,16.176202880859375,-0.0452476367354393,0.07005409151315689,-0.0499853640794754
1750742389995276000,16.201276123046874,-0.0738544762134552,0.03217849135398865,0.049901507794857025
1750742390020350000,16.226349853515625,-0.03299961984157562,-0.0038143089041113853,0.07610940933227539
1750742390045423900,16.251423828125,0.047042880207300186,0.009415511973202229,0.053744759410619736
1750742390070496800,16.276496826171876,0.09921189397573471,0.08034619688987732,0.005088761914521456
1750742390095570700,16.30157080078125,0.07048472762107849,0.0009509609080851078,-0.13088098168373108
1750742390120644900,16.326644775390626,0.02304774709045887,-0.03490126505494118,-0.1866028606891632
1750742390145718800,16.35171875,-0.014603206887841225,0.014569718390703201,-0.0972626805305481
1750742390170792000,16.3767919921875,-0.037634849548339844,0.01264748815447092,-0.0034306920133531094
1750742390195865900,16.401865966796876,-0.039250731468200684,0.07911763340234756,0.02909800224006176
1750742390220939800,16.426939697265624,-0.0010859660105779767,0.02593904547393322,-0.01878160424530506
1750742390246013000,16.452012939453127,0.009540829807519913,-0.07647684961557388,-0.03770366683602333
1750742390271086800,16.4770869140625,0.0207383930683136,-0.010548023506999016,-0.059130437672138214
1750742390296161000,16.5021611328125,0.025274336338043213,-0.011981755495071411,-0.0546407625079155
1750742390321235000,16.52723486328125,0.008811239153146744,0.007684965617954731,-0.07133204489946365
1750742390346308000,16.55230810546875,-0.002000225707888603,-0.07935908436775208,-0.12249241024255753
1750742390371382000,16.577382080078124,0.010609986260533333,-0.08336439728736877,-0.05592740699648857
1750742390396456000,16.6024560546875,0.02493070438504219,0.026725705713033676,-0.07313568890094757
1750742390421528800,16.62752880859375,0.004345332738012075,-0.14082692563533783,-0.08312079310417175
1750742390446602800,16.652602783203125,-0.08257874846458435,0.028660349547863007,0.06967875361442566
1750742390471677000,16.677677001953125,0.04180414602160454,-0.21720758080482483,0.08666401356458664
1750742390496750800,16.702750732421876,-0.01913590542972088,0.07082100957632065,0.08257605880498886
1750742390521824000,16.727823974609375,0.021809417754411697,-0.22203819453716278,0.006118225399404764
1750742390546898000,16.75289794921875,0.050198428332805634,-0.25586897134780884,-0.1418732851743698
1750742390571971800,16.777971923828126,-0.0647963210940361,-0.20056705176830292,-0.05428960546851158
1750742390597045000,16.803044921875,-0.049061063677072525,-0.12150692939758301,0.14273469150066376
1750742390622119000,16.828118896484376,-0.16506144404411316,-0.20705033838748932,-0.05519941821694374
1750742390647192800,16.85319287109375,-0.18304279446601868,-0.06824569404125214,0.19778938591480255
1750742390672267000,16.87826708984375,0.07264774292707443,-0.1486138254404068,0.1301717758178711
1750742390697340000,16.90333984375,-0.0032200724817812443,0.24721942842006683,-0.010708650574088097
1750742390722414000,16.9284140625,-0.09504325687885284,0.26561078429222107,0.05722007155418396
1750742390747488000,16.953488037109373,-0.10090675204992294,-0.20338337123394012,-0.3383491337299347
1750742390772561000,16.978560791015624,-0.16531017422676086,-0.3872094452381134,0.03552595525979996
1750742390797634800,17.003634765625,-0.30977433919906616,-0.1424601674079895,0.4080441892147064
1750742390822708700,17.028708740234375,-0.3045847415924072,-0.167308047413826,0.402995228767395
1750742390847783000,17.053782958984375,-0.18092629313468933,0.03146037459373474,0.2347131222486496
1750742390872855800,17.078855712890626,-0.0700845867395401,-0.10545546561479568,0.1111082136631012
1750742390897930000,17.103929931640625,-0.011758334003388882,-0.12532907724380493,0.08801192045211792
1750742390923004000,17.12900390625,0.0286260899156332,-0.08767281472682953,0.0784149095416069
1750742390948077000,17.1540771484375,0.07047820091247559,-0.10566539317369461,-0.0006311731413006783
1750742390973151000,17.17915087890625,0.09891275316476822,0.017745183780789375,0.0034817736595869064
1750742390998225000,17.204224853515626,0.09775808453559875,-0.05155167728662491,-0.008037533611059189
1750742391023299000,17.229299072265626,0.08303680270910263,0.007216263096779585,-0.009228810667991638
1750742391048372200,17.254372314453125,-0.006890107411891222,0.08895997703075409,0.03865920007228851
1750742391073446400,17.2794462890625,-0.058958664536476135,0.04393942654132843,0.09661190956830978
1750742391098520300,17.304520263671876,-0.02742108330130577,-0.043851498514413834,0.11055595427751541
1750742391123593200,17.32959326171875,-0.050402164459228516,-0.04348514974117279,0.04038066789507866
1750742391148667400,17.35466748046875,-0.06928083300590515,-0.057130832225084305,0.024221409112215042
1750742391173741300,17.3797412109375,-0.07480044662952423,-0.009542298503220081,-0.04504486545920372
1750742391198815200,17.404815185546877,-0.09601720422506332,-0.07403633743524551,-0.07693222165107727
1750742391223888400,17.429888427734376,-0.11316037178039551,-0.03769734129309654,0.028882432729005814
1750742391248962300,17.45496240234375,-0.045892585068941116,0.03791821002960205,0.13746152818202972
1750742391274036200,17.4800361328125,0.07259173691272736,0.21744991838932037,0.06130687892436981
1750742391299110100,17.505110107421874,0.03896480053663254,0.3270358741283417,-0.09504369646310806
1750742391324183300,17.530183349609374,0.011040972545742989,0.002682382706552744,-0.27643612027168274
1750742391349257200,17.55525732421875,0.032465919852256775,-0.34553074836730957,-0.4341753423213959
1750742391374331100,17.5803310546875,-0.06855808198451996,-0.22166526317596436,-0.1360362470149994
1750742391399404300,17.605404296875,-0.20287182927131653,-0.034551169723272324,0.3060322701931
1750742391424478200,17.630478271484375,-0.15752765536308289,0.08452518284320831,0.3794229030609131
1750742391449552400,17.655552490234374,-0.050909511744976044,0.15259963274002075,0.23431894183158875
1750742391474626300,17.680626220703125,0.01932758465409279,0.002221200382336974,0.04607994854450226
1750742391499699500,17.705699462890625,0.007169300690293312,-0.1926492154598236,-0.12411575019359589
1750742391524773400,17.7307734375,0.02199709787964821,-0.16229364275932312,-0.15368786454200745
1750742391549847300,17.755847412109375,-0.08429666608572006,0.02297189086675644,-0.11373265832662582
1750742391574920200,17.780920166015626,-0.1167464628815651,0.08752388507127762,-0.02453027106821537
1750742391599994000,17.805994140625,-0.09592245519161224,0.1962519884109497,0.056125275790691376
1750742391625068300,17.831068359375,0.033851515501737595,0.23426461219787598,0.10949209332466125
1750742391650142200,17.85614208984375,0.06498239934444427,0.1838074028491974,0.004340301267802715
1750742391675215400,17.88121533203125,-0.010092093609273434,0.006435055751353502,-0.1275564432144165
1750742391700289300,17.906289306640623,-0.00861736573278904,-0.29577308893203735,-0.13477246463298798
1750742391725363200,17.93136328125,-0.10182532668113708,-0.20920036733150482,-0.0068831732496619225
1750742391750437400,17.956437255859374,-0.14927257597446442,-0.15100349485874176,0.17599846422672272
1750742391775510300,17.98151025390625,-0.10041980445384979,-0.12774574756622314,0.2271135002374649
1750742391800584200,18.006584228515624,0.04715946316719055,-0.022009938955307007,0.22658908367156982
1750742391825658400,18.031658447265624,0.0915171429514885,-0.0012370669282972813,0.19422665238380432
1750742391850731300,18.056731201171875,0.06519292294979095,0.0058233910240232944,-0.04322010278701782
1750742391875805400,18.081805419921874,0.05620228871703148,-0.07317870110273361,-0.25025081634521484
1750742391900879400,18.10687939453125,0.03523962199687958,-0.07061304897069931,-0.08088366687297821
1750742391925953300,18.131953369140625,0.04307454451918602,-0.042043477296829224,0.04999726638197899
1750742391951026200,18.157026123046876,-0.03723226860165596,0.0690143033862114,0.03397318348288536
1750742391976100000,18.18210009765625,0.01887020468711853,-0.03884880244731903,0.039295658469200134
1750742392001174300,18.20717431640625,0.013273818418383598,-0.16769716143608093,0.037634722888469696
1750742392026248200,18.232248291015626,-0.09688412398099899,-0.15064337849617004,0.12909695506095886
1750742392051321300,18.2573212890625,-0.14061225950717926,-0.10706742852926254,0.1305658519268036
1750742392076395300,18.282395263671877,-0.07141698896884918,-0.197447270154953,0.08549134433269501
1750742392101469200,18.30746923828125,-0.10438741743564606,-0.095908522605896,0.14333677291870117
1750742392126542000,18.3325419921875,-0.019962582737207413,-0.009381229057908058,0.15375828742980957
1750742392151616000,18.357615966796875,0.002276576589792967,0.040815602988004684,0.074249766767025
1750742392176690200,18.382690185546874,0.08682112395763397,-0.008630750700831413,-0.0012286347337067127
1750742392201764000,18.40776416015625,0.05669981986284256,-0.19743895530700684,-0.011882456950843334
1750742392226837200,18.432837158203125,-0.06525596231222153,-0.16620685160160065,-0.07150755822658539
1750742392251911200,18.4579111328125,-0.17338484525680542,-0.27369046211242676,0.0031059239991009235
1750742392276985000,18.482985107421875,-0.1295619010925293,-0.2567487359046936,0.2653680145740509
1750742392302059300,18.508059326171875,-0.16362543404102325,-0.021125590428709984,0.2822999954223633
1750742392327132200,18.533132080078126,-0.13973896205425262,0.3637300133705139,0.31143081188201904
1750742392352206300,18.558206298828125,-0.0690867230296135,0.1439145803451538,-0.04008308798074722
1750742392377280300,18.5832802734375,-0.07028134167194366,-0.16273196041584015,-0.23158830404281616
1750742392402354200,18.608354248046876,-0.11415418982505798,-0.09462272375822067,-0.0037172846496105194
1750742392427427000,18.633427001953127,-0.07305517792701721,0.0838259607553482,0.045453839004039764
1750742392452501000,18.6585009765625,-0.09851351380348206,0.3623342216014862,0.07575353235006332
1750742392477575200,18.6835751953125,-0.14643710851669312,0.3219636082649231,0.04550828039646149
1750742392502648000,18.70864794921875,-0.017488688230514526,0.02163180150091648,-0.06938417255878448
1750742392527722200,18.73372216796875,0.027060270309448242,-0.04155951738357544,-0.12578639388084412
1750742392552796200,18.758796142578124,0.09859321266412735,-0.14106616377830505,0.09850038588047028
1750742392577870000,18.7838701171875,0.12011716514825821,-0.16094475984573364,0.17252324521541595
1750742392602943200,18.808943115234374,0.11814838647842407,-0.063343346118927,0.0737278163433075
1750742392628017200,18.83401708984375,-0.005458741448819637,-0.19697588682174683,-0.08918379247188568
1750742392653091000,18.859091064453125,-0.002179460134357214,-0.12869712710380554,-0.07199183106422424
1750742392678165200,18.884165283203124,0.003200546372681856,0.03492295369505882,-0.10563740879297256
1750742392703238100,18.909238037109375,-0.10365664213895798,0.35388660430908203,0.07954207062721252
1750742392728312300,18.934312255859375,-0.0901997983455658,0.3357997238636017,-0.044763218611478806
1750742392753386200,18.95938623046875,-0.0701158419251442,0.17043015360832214,-0.3861738443374634
1750742392778460200,18.984460205078125,-0.0724497139453888,0.12310455739498138,-0.3508188724517822
1750742392803533000,19.009532958984376,-0.14626948535442352,0.09627839177846909,-0.2510000765323639
1750742392828607000,19.03460693359375,-0.14145398139953613,0.12326623499393463,-0.026109637692570686
1750742392853681200,19.05968115234375,-0.127701997756958,0.010177647694945335,0.01882682926952839
1750742392878754000,19.084754150390626,-0.06189500540494919,-0.14352212846279144,0.1701599359512329
1750742392903828200,19.109828125,0.03869468718767166,-0.24674293398857117,0.14333368837833405
1750742392928902100,19.134902099609373,-0.007168939802795649,-0.2502135634422302,0.236229807138443
1750742392953976000,19.15997607421875,0.0011849040165543556,-0.1681981086730957,0.19920212030410767
1750742392979049200,19.18504931640625,0.0567951500415802,0.021186355501413345,0.14541193842887878
1750742393004123100,19.210123046875,0.12893187999725342,0.03918268904089928,0.035779569298028946
1750742393029197300,19.235197265625,0.10924111306667328,0.08513173460960388,-0.0433475598692894
1750742393054271000,19.26027099609375,0.03440578654408455,0.1097458079457283,-0.1501905769109726
1750742393079344000,19.28534423828125,-0.02513260580599308,-0.024659262970089912,-0.21383775770664215
1750742393104418000,19.31041796875,-0.037301838397979736,-0.10779523849487305,-0.019696060568094254
1750742393129492000,19.335491943359376,-0.11555464565753937,0.04574139788746834,0.1550864726305008
1750742393154566100,19.360566162109375,-0.13006426393985748,0.1341066062450409,0.12008021771907806
1750742393179639000,19.38563916015625,-0.1225295290350914,0.004042739048600197,0.022500963881611824
1750742393204713200,19.410713134765626,-0.08809495717287064,-0.11930238455533981,0.08639167994260788
1750742393229787100,19.435787109375,-0.07051265239715576,0.024030333384871483,0.07470215111970901
1750742393254861000,19.460861083984376,-0.04826917499303818,0.014981240965425968,-0.002929097041487694
1750742393279934000,19.485933837890624,-0.022378435358405113,-0.027162382379174232,0.017849603667855263
1750742393305007900,19.5110078125,0.022720985114574432,-0.014234472066164017,0.05671261250972748
1750742393330082000,19.53608203125,-0.003866966348141432,0.019513867795467377,0.06322906911373138
1750742393355156000,19.561156005859374,0.056125394999980927,-0.038304589688777924,0.01571793109178543
1750742393380229000,19.58622900390625,0.011051497422158718,-0.1396005004644394,0.024635527282953262
1750742393405303000,19.611302978515624,0.020987583324313164,0.10758162289857864,0.23038534820079803
1750742393430377000,19.636376953125,0.08110597729682922,0.07416266202926636,0.18611755967140198
1750742393455450000,19.6614501953125,0.16427840292453766,0.008001933805644512,0.0002126656472682953
1750742393480524000,19.68652392578125,0.058285802602767944,0.08615176379680634,-0.10553526133298874
1750742393505598000,19.711597900390625,0.12009742110967636,-0.353258341550827,-0.1468084752559662
1750742393530672000,19.736672119140625,-0.03538154810667038,-0.14517302811145782,-0.11463550478219986
1750742393555745000,19.7617451171875,-0.17734986543655396,-0.05673658102750778,0.1580696702003479
1750742393580819200,19.786819091796875,0.01705632545053959,-0.08797986060380936,0.20348672568798065
1750742393605893000,19.81189306640625,0.11638756841421127,0.3116866946220398,0.08792543411254883
1750742393630967000,19.836967041015626,-0.0467548631131649,0.4717649817466736,0.10959568619728088
1750742393656040000,19.8620400390625,-0.04077671468257904,0.04894573986530304,-0.33787864446640015
1750742393681113900,19.88711376953125,0.07634031027555466,-0.3779270648956299,-0.5126529335975647
1750742393706188000,19.91218798828125,-0.0264741238206625,-0.06465566903352737,0.05247027799487114
1750742393731262000,19.937261962890624,-0.17523720860481262,0.302532821893692,0.3190663754940033
1750742393756335000,19.962335205078126,-0.15894031524658203,0.3636225759983063,0.14440450072288513
1750742393781409000,19.987408935546874,-0.1018209308385849,0.19916972517967224,-0.039484720677137375
1750742393806483000,20.01248291015625,-0.009758593514561653,-0.01756507158279419,-0.07804249227046967
1750742393831557000,20.03755712890625,0.11438976973295212,-0.026212774217128754,-0.014007206074893475
1750742393856630000,20.062630126953124,0.0865812748670578,0.10231876373291016,0.06180545687675476
1750742393881704200,20.0877041015625,0.026274889707565308,0.24846747517585754,0.14184501767158508
1750742393906778000,20.112778076171875,-0.018032141029834747,0.15367668867111206,0.018368959426879883
1750742393931852000,20.13785205078125,-0.0359053760766983,-0.11437460780143738,-0.020060496404767036
1750742393956925200,20.16292529296875,-0.05229821428656578,-0.13066492974758148,-0.005997179541736841
1750742393981998800,20.187998779296876,-0.04091399908065796,-0.22454987466335297,-0.0027859401889145374
1750742394007073000,20.213072998046876,-0.06271922588348389,-0.1181010901927948,-0.04927423223853111
1750742394032147000,20.23814697265625,0.009704690426588058,0.025339342653751373,-0.029084809124469757
1750742394057220000,20.26322021484375,0.14073804020881653,0.10401297360658646,-0.10808131843805313
1750742394082294000,20.2882939453125,0.1974303126335144,0.16331537067890167,-0.1855708658695221
1750742394107368000,20.313367919921873,0.11364525556564331,0.03226447105407715,-0.34118613600730896
1750742394132442000,20.338442138671876,0.08640367537736893,-0.2509416937828064,-0.48334020376205444
1750742394157515000,20.363514892578124,-0.07712682336568832,-0.23659947514533997,-0.17247754335403442
1750742394182589000,20.3885888671875,-0.14824126660823822,-0.06720393896102905,0.21560019254684448
1750742394207663000,20.4136630859375,-0.15359659492969513,0.07167249172925949,0.34743815660476685
1750742394232737000,20.438737060546874,-0.16462577879428864,0.14601844549179077,0.1614406704902649
1750742394257810200,20.46381005859375,-0.10328691452741623,0.03155754134058952,-0.002291466575115919
1750742394282884000,20.488884033203124,-0.04124530777335167,-0.2627909779548645,-0.014639822766184807
1750742394307958000,20.5139580078125,-0.14751075208187103,0.006932941731065512,0.10836230218410492
1750742394333032200,20.5390322265625,-0.10632898658514023,0.22695836424827576,0.2623729407787323
1750742394358104800,20.564104736328126,-0.017649373039603233,0.17776259779930115,0.21949347853660583
1750742394383179000,20.589178955078125,0.0018919009016826749,0.24904358386993408,0.19984348118305206
1750742394408253000,20.6142529296875,-0.027823394164443016,-0.024573292583227158,0.030453238636255264
1750742394433326800,20.639326904296876,-0.07311414927244186,-0.32404783368110657,-0.04859489947557449
1750742394458400000,20.66439990234375,-0.1390269547700882,-0.06450814753770828,0.2291300743818283
1750742394483474000,20.689473876953127,-0.046529240906238556,0.026181546971201897,0.4271201193332672
1750742394508548000,20.714548095703126,0.11186157912015915,0.29032379388809204,0.35288625955581665
1750742394533622000,20.7396220703125,0.17680597305297852,0.5291460752487183,0.0847945436835289
1750742394558695200,20.764695068359377,0.18650606274604797,0.053759392350912094,-0.42064908146858215
1750742394583769000,20.78976904296875,0.17909559607505798,-0.3544470965862274,-0.565211832523346
1750742394608843000,20.814843017578124,0.09182757884263992,-0.10219447314739227,-0.18731199204921722
1750742394633917200,20.839917236328127,0.03436882048845291,0.19922128319740295,0.20906293392181396
1750742394658990000,20.864989990234374,0.0588059201836586,0.5455313324928284,0.43351998925209045
1750742394684064300,20.890064208984374,0.031166788190603256,0.5459235310554504,0.2216922789812088
1750742394709138200,20.91513818359375,0.07083760201931,-0.03970212861895561,-0.22948144376277924
1750742394734211800,20.9402119140625,0.07891304790973663,-0.3844815194606781,-0.2678722143173218
1750742394759285000,20.965284912109375,-0.007672404870390892,-0.2519097626209259,-0.08048240840435028
1750742394784359000,20.99035888671875,-0.04143163189291954,-0.13124065101146698,0.1065724715590477
1750742394809433000,21.01543310546875,-0.01087253075093031,0.11450736224651337,0.12309768795967102
1750742394834507000,21.040507080078125,0.030538208782672882,0.13239741325378418,-0.014030945487320423
1750742394859580200,21.065580078125,0.1512194722890854,0.11052927374839783,-0.13648465275764465
1750742394884654000,21.090654052734376,0.2598521411418915,0.0779046043753624,-0.3464295268058777
1750742394909728000,21.11572802734375,0.27337977290153503,0.030182642862200737,-0.3809697926044464
1750742394934802200,21.14080224609375,0.13999728858470917,-0.033381763845682144,-0.36384308338165283
1750742394959875000,21.165875,0.04430846869945526,-0.17868895828723907,-0.33167383074760437
1750742394984949000,21.190948974609373,0.003016339149326086,-0.1479099839925766,-0.091326043009758
1750742395010023200,21.216023193359376,-0.05631594732403755,0.031206004321575165,0.14490437507629395
1750742395035097000,21.24109716796875,-0.01675567775964737,0.03079322911798954,0.23636524379253387
1750742395060170500,21.26617041015625,-0.04610099643468857,0.06794237345457077,0.03800448030233383
1750742395085244400,21.291244384765626,-0.014146845787763596,-0.09312658756971359,-0.08631481230258942
1750742395110318300,21.316318359375,-0.02691544033586979,-0.19283607602119446,-0.03623143956065178
1750742395135392500,21.341392578125,-0.1276598572731018,-0.0783134251832962,-0.003064887598156929
1750742395160465400,21.36646533203125,-0.11007294058799744,-0.03865697607398033,-0.01782933808863163
1750742395185539600,21.39153955078125,-0.14131620526313782,-0.06156381592154503,-0.01782553270459175
1750742395210613500,21.416613525390623,0.018618667498230934,0.015222789719700813,0.15759426355361938
1750742395235687400,21.4416875,0.050909627228975296,0.16870465874671936,0.19515129923820496
1750742395260760600,21.466760498046874,0.06046763062477112,0.12583203613758087,0.0639500617980957
1750742395285834500,21.49183447265625,0.0390859916806221,0.02248539589345455,-0.04231052100658417
1750742395310908700,21.51690869140625,0.04244881495833397,-0.2614239752292633,0.04542982950806618
1750742395335982600,21.541982666015624,-0.14569419622421265,-0.04092482477426529,0.15884308516979218
1750742395361055500,21.567055419921875,-0.1511922925710678,-0.12147745490074158,0.2617705464363098
1750742395386129400,21.59212939453125,-0.010859246365725994,-0.09431783109903336,0.2987056374549866
1750742395411203300,21.617203369140626,0.09340905398130417,0.16723430156707764,0.29736757278442383
1750742395436277500,21.642277587890625,0.06023164093494415,0.15702523291110992,0.10755617171525955
1750742395461350400,21.667350341796876,0.09260241687297821,0.032448332756757736,-0.25951850414276123
1750742395486424300,21.69242431640625,0.11048509180545807,-0.16526108980178833,-0.2991887629032135
1750742395511498500,21.71749853515625,0.08125821501016617,0.07698379456996918,-0.05759306997060776
1750742395536572400,21.742572509765626,0.08946464210748672,0.14081008732318878,-0.05237380787730217
1750742395561645600,21.7676455078125,0.06797460466623306,0.1698063313961029,-0.07159338891506195
1750742395586719500,21.792719482421877,0.011254509910941124,0.13450129330158234,-0.1254965364933014
1750742395611793400,21.81779345703125,-0.00712927058339119,-0.08160507678985596,-0.22346337139606476
1750742395636867600,21.84286767578125,-0.04079645499587059,-0.08495520800352097,-0.026297276839613914
1750742395661940200,21.867940185546875,-0.06602448970079422,0.040809959173202515,0.19853658974170685
1750742395687014400,21.893014404296874,-0.015827253460884094,0.14053581655025482,0.1832970827817917
1750742395712088300,21.91808837890625,0.041620586067438126,0.14443223178386688,-0.030554644763469696
1750742395737162200,21.943162353515625,0.1120324432849884,-0.20693586766719818,-0.154336079955101
1750742395762235400,21.9682353515625,0.10404012352228165,-0.22474020719528198,-0.21849220991134644
1750742395787309300,21.993309326171875,0.05499838665127754,-0.2085658609867096,-0.19946616888046265
1750742395812383500,22.018383544921875,0.10797682404518127,-0.043357521295547485,-0.05373076722025871
1750742395837457400,22.04345751953125,0.1703977882862091,0.12461285293102264,0.004615554586052895
1750742395862530600,22.068530517578125,0.14386099576950073,0.09393221139907837,-0.04391199350357056
1750742395887604500,22.0936044921875,0.1402178704738617,-0.06457188725471497,-0.2534966766834259
1750742395912678400,22.118678466796876,0.09827631711959839,-0.3028362989425659,-0.2961577773094177
1750742395937752600,22.143752685546875,0.007909825071692467,-0.14489780366420746,-0.0647629052400589
1750742395962826500,22.168826416015627,-0.0553244911134243,-0.021520106121897697,0.021715104579925537
1750742395987899600,22.193899658203126,-0.07384724169969559,-0.02285919338464737,0.06275498867034912
1750742396012973600,22.2189736328125,-0.07182755321264267,-0.03058120794594288,0.09743013978004456
1750742396038047500,22.244047607421876,-0.10441222786903381,-0.13375341892242432,0.061111170798540115
1750742396063121700,22.26912158203125,-0.023214466869831085,0.048922646790742874,-0.0525384321808815
1750742396088194600,22.294194580078123,0.050984498113393784,0.051823120564222336,-0.2360207885503769
1750742396113268700,22.319268798828126,0.10101459175348282,-0.11259922385215759,-0.3130909204483032
1750742396138342700,22.3443427734375,-0.10286527127027512,-0.21071507036685944,-0.21703249216079712
1750742396163416600,22.36941650390625,0.022367822006344795,-0.13759183883666992,0.14275994896888733
1750742396188489700,22.39448974609375,0.11518692225217819,0.240312397480011,0.2764328122138977
1750742396213563600,22.419563720703124,0.0993940606713295,0.22405895590782166,0.3601732552051544
1750742396238637600,22.444637451171875,0.05835235118865967,0.01305217482149601,0.10355902463197708
1750742396263711700,22.469711669921875,-0.28214743733406067,-0.696736216545105,-0.6002742648124695
1750742396288784400,22.494784423828126,-0.24505525827407837,-0.8125327229499817,-0.10764376074075699
1750742396313858600,22.519858642578125,0.0701051577925682,-0.5265596508979797,0.3706451952457428
1750742396338932500,22.544932373046876,0.24064765870571136,0.2831333875656128,0.46548184752464294
1750742396364006400,22.57000634765625,0.07382004708051682,1.3532578945159912,0.33155304193496704
1750742396389079600,22.59507958984375,0.09549104422330856,0.004476593341678381,-0.7666316032409668
1750742396414153500,22.620153564453126,0.19976741075515747,-0.8481473922729492,-0.961650013923645
1750742396439227600,22.6452275390625,-0.03704056516289711,-0.3160271942615509,0.037573542445898056
1750742396464301600,22.670301513671873,-0.17760981619358063,0.22667372226715088,0.6582755446434021
1750742396489374700,22.695374755859376,-0.2616174817085266,0.6783987879753113,0.4037151038646698
1750742396514448600,22.72044873046875,-0.24260038137435913,0.14647816121578217,0.04575929790735245
1750742396539522600,22.7455224609375,-0.15651211142539978,-0.5171898603439331,-0.17073123157024384
1750742396564596700,22.7705966796875,0.02423790469765663,-0.4676437973976135,-0.23395733535289764
1750742396589669400,22.79566943359375,0.026897519826889038,-0.11931910365819931,0.01674564555287361
1750742396614743600,22.82074365234375,-0.0002906906884163618,0.31559082865715027,0.27986598014831543
1750742396639817500,22.8458173828125,0.04727308079600334,0.13750120997428894,0.29503899812698364
1750742396664891400,22.870891357421876,0.050167378038167953,-0.05749659612774849,0.09805157035589218
1750742396689964500,22.895964599609375,0.12324345111846924,-0.2526785433292389,-0.12146331369876862
1750742396715038500,22.92103857421875,0.0885266587138176,-0.33971795439720154,-0.10027772188186646
1750742396740112600,22.946112548828125,-0.06216898933053017,-0.12252345681190491,0.08633001148700714
1750742396765186600,22.9711865234375,-0.1410161852836609,-0.03364243730902672,0.17374949157238007
1750742396790259700,22.996259765625,-0.14172786474227905,0.025158511474728584,0.22636213898658752
1750742396815333600,23.021333740234375,-0.05976307392120361,0.22171011567115784,0.23034606873989105
1750742396840407600,23.046407470703127,-0.027920115739107132,0.12338489294052124,0.07829601317644119
1750742396865481700,23.071481689453126,-0.031235521659255028,0.0777544230222702,-0.1260451078414917
1750742396890554600,23.0965546875,-0.008608343079686165,-0.1030452772974968,-0.21565034985542297
1750742396915628500,23.121628662109377,-0.039363518357276917,-0.1360490322113037,-0.05213633179664612
1750742396940702700,23.14670263671875,-0.06771153956651688,0.17056730389595032,0.10279078036546707
1750742396965776600,23.171776611328124,-0.10333443433046341,0.1355597823858261,0.09895110875368118
1750742396990850600,23.1968505859375,-0.12318466603755951,0.15309348702430725,0.05453106760978699
1750742397015923500,23.22192333984375,-0.09143350273370743,-0.020902317017316818,-0.05454733222723007
1750742397040997600,23.24699755859375,-0.08884180337190628,-0.03204048052430153,0.03711376711726189
1750742397066071000,23.272071044921876,-0.02460614964365959,0.1530061513185501,0.07438737154006958
1750742397091145000,23.29714501953125,-0.015470976009964943,0.06441797316074371,-0.016037337481975555
1750742397116218000,23.322218017578123,-0.021927041932940483,0.12861579656600952,-0.046242453157901764
1750742397141292000,23.3472919921875,-0.021178970113396645,0.004980426747351885,0.04082491993904114
1750742397166366200,23.3723662109375,-0.0028217905201017857,-0.01974332146346569,0.19017328321933746
1750742397191440100,23.397440185546873,-0.005294164642691612,0.13635316491127014,0.20261822640895844
1750742397216513000,23.422512939453124,0.0028197821229696274,-0.025726327672600746,0.08924902975559235
1750742397241587000,23.4475869140625,-0.04544438421726227,-0.06453882902860641,0.023069433867931366
1750742397266660900,23.472660888671875,-0.08190503716468811,-0.1931309551000595,-0.030859464779496193
1750742397291735000,23.497735107421875,-0.09998742491006851,-0.13478340208530426,0.05503227561712265
1750742397316808000,23.522807861328126,-0.004959671758115292,0.16360129415988922,0.15064796805381775
1750742397341882000,23.547882080078125,0.026119813323020935,0.2569587528705597,0.09545042365789413
1750742397366956000,23.5729560546875,0.0012082774192094803,0.27007389068603516,-0.09060642123222351
1750742397392030000,23.598030029296876,0.04922857508063316,0.0027801853138953447,-0.27413660287857056
1750742397417103000,23.62310302734375,0.035289354622364044,-0.1388881951570511,-0.11156145483255386
1750742397442177000,23.648177001953126,-0.008737188763916492,0.15518352389335632,0.06826898455619812
1750742397467251000,23.6732509765625,-0.054462965577840805,0.08885853737592697,0.01482322160154581
1750742397492325000,23.6983251953125,-0.08362355828285217,0.0773242712020874,0.02010175958275795
1750742397517398000,23.72339794921875,-0.05890577659010887,0.00895534548908472,-0.013897028751671314
1750742397542472200,23.74847216796875,-0.04924945533275604,-0.04654394090175629,-0.0060839224606752396
1750742397567546000,23.773546142578127,-0.0015004761517047882,0.12438281625509262,0.02567358687520027
1750742397592620000,23.7986201171875,0.050598785281181335,0.03660290315747261,0.02126978524029255
1750742397617694200,23.823694091796874,0.056299008429050446,0.0847235843539238,0.0365615040063858
1750742397642766800,23.848766845703125,0.08882826566696167,0.04934953898191452,-0.014088434167206287
1750742397667841000,23.873841064453124,0.10238774865865707,-0.17121218144893646,0.043119579553604126
1750742397692915000,23.8989150390625,0.0799122080206871,-0.021925857290625572,0.12943688035011292
1750742397717988900,23.92398876953125,0.05255553126335144,-0.053270936012268066,0.0442824624478817
1750742397743062000,23.94906201171875,-0.022030387073755264,-0.03425572067499161,-0.012023268267512321
1750742397768136000,23.974135986328125,-0.041756678372621536,-0.09707412868738174,-0.02920822612941265
1750742397793210000,23.999210205078125,-0.05382408946752548,-0.1210758239030838,0.1218297928571701
1750742397818284000,24.024283935546876,-0.01157821249216795,0.17222629487514496,0.18434840440750122
1750742397843357200,24.049357177734375,0.046978022903203964,0.21737369894981384,0.022853605449199677
1750742397868431000,24.07443115234375,0.048592664301395416,0.055689118802547455,-0.16867408156394958
1750742397893505000,24.099505126953126,0.030211428180336952,-0.05469600483775139,-0.22738705575466156
1750742397918579200,24.1245791015625,0.02318769134581089,-0.1414777934551239,-0.0929681807756424
1750742397943652000,24.149652099609376,-0.0002713173162192106,0.04253136366605759,0.10356305539608002
1750742397968726000,24.17472607421875,-0.010718663223087788,0.20336757600307465,0.1520383656024933
1750742397993800000,24.199800048828124,-0.02329338900744915,0.0598810613155365,0.04776504263281822
1750742398018873900,24.224873779296875,-0.04187031090259552,-0.04329053312540054,-0.021257547661662102
1750742398043947000,24.249947021484374,-0.012709569185972214,-0.0521715022623539,-0.13502223789691925
1750742398069021700,24.275021728515625,0.000012246426194906235,-0.10887321829795837,-0.09941364079713821
1750742398094095600,24.300095703125,-0.0025477148592472076,0.020847121253609657,0.08954356610774994
1750742398119169800,24.325169677734376,0.005860965698957443,0.18341583013534546,0.09201475977897644
1750742398144243700,24.35024365234375,0.029379310086369514,0.09170074760913849,-0.01445610262453556
1750742398169316900,24.37531689453125,0.03211202472448349,-0.07570118457078934,-0.07694200426340103
1750742398194390800,24.400390869140626,-0.00011911522597074509,-0.03153444081544876,-0.05202672258019447
1750742398219464700,24.425464599609374,-0.007596634328365326,-0.05741149187088013,0.08238647878170013
1750742398244539000,24.450538818359377,-0.006944112945348024,0.08938606083393097,0.174529567360878
1750742398269611500,24.475611572265624,0.004102376289665699,0.17225177586078644,0.10204475373029709
1750742398294685700,24.500685791015623,0.01487365085631609,-0.03954504057765007,-0.058493226766586304
1750742398319759600,24.525759521484375,-0.008222732692956924,-0.08663731068372726,-0.08926555514335632
1750742398344833500,24.55083349609375,0.019576124846935272,-0.005482043605297804,-0.021181611344218254
1750742398369906700,24.57590673828125,0.023516157642006874,-0.012193804606795311,0.04298124089837074
1750742398394980600,24.600980712890625,0.03345819190144539,0.0986238643527031,0.06517157703638077
1750742398420054800,24.6260546875,0.06917352229356766,0.11864500492811203,0.061039529740810394
1750742398445128700,24.651128662109375,0.10854649543762207,-0.047072261571884155,-0.01808975823223591
1750742398470201900,24.676201904296875,0.07832080125808716,-0.02028132975101471,-0.11257030814886093
1750742398495275800,24.70127587890625,0.0635896846652031,-0.00040944485226646066,-0.18545116484165192
1750742398520349700,24.726349609375,0.023376988247036934,-0.08872899413108826,-0.12509283423423767
1750742398545424000,24.751423828125,-0.01364617794752121,0.07928213477134705,0.017548587173223495
1750742398570496800,24.776496826171876,-0.019321473315358162,0.25284406542778015,-0.01965881697833538
1750742398595570700,24.80157080078125,0.025074204429984093,0.08781244605779648,-0.0672261118888855
1750742398620644900,24.826644775390626,0.037666529417037964,-0.06827113777399063,0.017316855490207672
1750742398645718800,24.85171875,0.05466853454709053,-0.09546881169080734,0.038370244204998016
1750742398670792700,24.876792724609373,0.08440156280994415,-0.1346612572669983,-0.003521125763654709
1750742398695865600,24.901865478515624,0.06821389496326447,-0.12222056835889816,-0.05513657256960869
1750742398720939500,24.926939453125,0.02150833234190941,-0.09844235330820084,-0.06809045374393463
1750742398746013700,24.952013671875,0.0072585404850542545,-0.10769874602556229,0.021195178851485252
1750742398771087600,24.977087646484375,-0.024078290909528732,-0.10312511771917343,0.13227535784244537
1750742398796160800,25.002160888671874,0.001229410176165402,-0.01581835374236107,0.1932537704706192
1750742398821234700,25.027234619140625,0.0747726559638977,0.042056042701005936,0.060087185353040695
1750742398846308600,25.05230859375,0.09415990114212036,-0.03867083787918091,-0.12210454046726227
1750742398871382800,25.0773828125,0.0888509750366211,-0.13400675356388092,-0.1757603883743286
1750742398896455700,25.10245556640625,0.02278255484998226,-0.14158159494400024,-0.0639839768409729
1750742398921529900,25.12752978515625,-0.06916164606809616,-0.12728965282440186,0.08668995648622513
1750742398946603800,25.152603759765626,-0.14449910819530487,-0.13339313864707947,0.24111205339431763
1750742398971677700,25.177677734375,-0.2260398119688034,-0.053699422627687454,0.2597116231918335
1750742398996750600,25.20275048828125,-0.30296793580055237,-0.0373518131673336,0.10741356760263443
1750742399021824500,25.227824462890624,-0.20140114426612854,-0.03825131431221962,-0.01490077469497919
1750742399046898700,25.252898681640627,-0.02517794631421566,-0.10463127493858337,-0.02151842601597309
1750742399071972400,25.277972412109374,0.07589159160852432,0.015522840432822704,0.056130219250917435
1750742399097045500,25.30304541015625,0.09830968827009201,0.12510782480239868,0.04914535582065582
1750742399122119400,25.328119384765625,0.025260474532842636,0.1262216866016388,0.052021075040102005
1750742399147193300,25.353193359375,-0.006832520943135023,0.15370333194732666,0.012291546911001205
1750742399172267500,25.378267578125,0.0595553033053875,0.028358427807688713,-0.11391045153141022
1750742399197341400,25.403341552734375,0.049816787242889404,-0.0857890173792839,-0.1994345784187317
1750742399222414600,25.42841455078125,0.002728864783421159,-0.030875638127326965,-0.14801225066184998
1750742399247488500,25.453488525390625,-0.01925284042954445,0.0658033937215805,0.025504210963845253
1750742399272562400,25.4785625,-0.008202435448765755,0.22636957466602325,0.15054452419281006
1750742399297636600,25.50363671875,-0.015874437987804413,0.1660386621952057,0.026945170015096664
1750742399322709500,25.52870947265625,0.01742406003177166,0.17428919672966003,-0.06607428938150406
1750742399347783700,25.55378369140625,0.15254370868206024,-0.2392120361328125,-0.18881264328956604
1750742399372857600,25.578857666015626,0.005947403609752655,0.001177787547931075,-0.06435716152191162
1750742399397931300,25.60393115234375,-0.04453061521053314,0.04933594539761543,0.04971272498369217
1750742399423004400,25.62900439453125,-0.10684041678905487,0.04102683067321777,0.09525974094867706
1750742399448078300,25.654078369140624,-0.12193329632282257,0.20368149876594543,0.08364691585302353
1750742399473152500,25.679152587890623,0.010481800884008408,0.08549269288778305,0.0030725947581231594
1750742399498226400,25.704226318359375,-0.07472063601016998,0.02596697211265564,-0.039550308138132095
1750742399523300400,25.72930029296875,0.14596016705036163,-0.053051628172397614,-0.017317479476332664
1750742399548373500,25.75437353515625,0.12641067802906036,0.22635328769683838,0.034378282725811005
1750742399573447400,25.779447509765625,0.07212695479393005,0.1702539026737213,0.2573028802871704
1750742399598521300,25.804521240234376,0.1609703153371811,-0.25155630707740784,-0.1895284354686737
1750742399623595500,25.829595458984375,0.029317578300833702,-0.1357221156358719,-0.08567994832992554
1750742399648668400,25.85466845703125,-0.010148057714104652,-0.11615103483200073,0.07002393156290054
1750742399673742600,25.87974267578125,-0.02622939459979534,-0.0027358802035450935,0.0187935009598732
1750742399698816500,25.90481640625,-0.04903578385710716,0.08628439903259277,0.07196807116270065
1750742399723890400,25.929890380859376,0.0001796965952962637,-0.0071651223115623,0.02051234431564808
1750742399748963300,25.95496337890625,0.02754688262939453,-0.0013112543383613229,-0.09708604216575623
1750742399774037200,25.980037353515623,0.04427330195903778,-0.007353395223617554,-0.07711975276470184
1750742399799111400,26.005111328125,0.07112369686365128,0.0003566213126759976,0.02749062515795231
1750742399824185300,26.030185302734374,0.06748182326555252,0.09446154534816742,0.04596071317791939
1750742399849259300,26.05525927734375,0.04340287670493126,0.11923614889383316,0.019808925688266754
1750742399874332400,26.08033251953125,0.02584538422524929,0.05410628765821457,-0.0658559501171112
1750742399899406300,26.10540625,-0.0005086312303319573,0.016660073772072792,-0.08913920819759369
1750742399924480500,26.13048046875,-0.0255848728120327,0.03278869763016701,-0.034583210945129395
1750742399949554400,26.155554443359375,-0.032801005989313126,0.09191479533910751,0.0056243231520056725
1750742399974627600,26.180627685546874,-0.07612404972314835,-0.061615124344825745,0.04649592936038971
1750742399999701500,26.205701416015625,-0.00027024722658097744,-0.11434073746204376,0.11550696194171906
1750742400024775400,26.230775390625,0.08021875470876694,-0.16396285593509674,0.06716689467430115
1750742400049849600,26.255849609375,0.024607960134744644,-0.037034403532743454,-0.04460502788424492
1750742400074922500,26.280922607421875,0.07234416902065277,-0.062359731644392014,-0.12919795513153076
1750742400099995600,26.30599560546875,0.03437658026814461,-0.03117930330336094,-0.0825287476181984
1750742400125069600,26.331069580078125,0.015596970915794373,0.10268673300743103,0.005825201980769634
1750742400150143700,26.356143798828125,0.01279332023113966,0.06112015247344971,0.028109770268201828
1750742400175217700,26.3812177734375,-0.03859936073422432,-0.04267403855919838,-0.008265433833003044
1750742400200291600,26.40629150390625,-0.05557206645607948,-0.15059471130371094,-0.03231925517320633
1750742400225364700,26.43136474609375,0.017554424703121185,-0.06494666635990143,-0.022158419713377953
1750742400250438700,26.456438720703126,0.04815790429711342,0.07827182114124298,0.018746476620435715
1750742400275512600,26.4815126953125,0.026599837467074394,0.1326337605714798,0.08910095691680908
1750742400300586800,26.506586669921877,0.09200984984636307,-0.05295362323522568,-0.10245660692453384
1750742400325659600,26.53165966796875,0.05118223652243614,0.025018036365509033,-0.12919865548610687
1750742400350733800,26.55673388671875,-0.10263384878635406,0.11553551256656647,0.0283837728202343
1750742400375807700,26.581807861328127,-0.08623068034648895,-0.029069684445858,0.05126477777957916
1750742400400881700,26.606881591796874,-0.06822645664215088,-0.04529285058379173,0.13181307911872864
1750742400425954600,26.63195458984375,-0.04321574792265892,-0.03527992218732834,0.14769604802131653
1750742400451028500,26.657028564453125,0.018124228343367577,0.06839775294065475,0.010263815522193909
1750742400476102700,26.6821025390625,0.010189667344093323,0.09491526335477829,-0.07865232229232788
1750742400501176600,26.707176513671875,0.029874756932258606,-0.02074187994003296,0.04169223830103874
1750742400526250500,26.73225048828125,0.02317790314555168,0.008837368339300156,0.06012047454714775
1750742400551323600,26.75732373046875,-0.017768749967217445,0.08502284437417984,0.07004774361848831
1750742400576397600,26.7823974609375,0.004984650295227766,0.009019363671541214,0.051409993320703506
1750742400601471700,26.8074716796875,0.0414758138358593,-0.06297919154167175,0.060861553996801376
1750742400626545700,26.832545654296876,0.06982079148292542,0.004196848254650831,0.04148823767900467
1750742400651619600,26.85761962890625,0.10660622268915176,0.06149312108755112,-0.05291180685162544
1750742400676692700,26.882692626953126,0.13098570704460144,0.06147667393088341,-0.0770082026720047
1750742400701766700,26.9077666015625,0.14399346709251404,0.026582924649119377,-0.03931758552789688
1750742400726840800,26.9328408203125,0.11469412595033646,0.010084196925163269,0.013500620611011982
1750742400751914800,26.957914794921876,0.05878351628780365,-0.02563449926674366,-0.024938493967056274
1750742400776987600,26.982987548828124,0.042168356478214264,-0.12767711281776428,-0.07559451460838318
1750742400802061600,27.0080615234375,0.027387188747525215,-0.11350426077842712,0.01059366948902607
1750742400827135500,27.033135498046875,0.0200633741915226,-0.052565932273864746,0.10720512270927429
1750742400852209700,27.058209716796874,0.014149224385619164,0.07101251929998398,0.022355441004037857
1750742400877283600,27.08328369140625,0.015814416110515594,0.05805331841111183,-0.1507873833179474
1750742400902356700,27.108356689453124,0.027820827439427376,-0.007670311257243156,-0.15417592227458954
1750742400927430700,27.1334306640625,0.043001823127269745,0.023751210421323776,-0.0339602567255497
1750742400952504600,27.158504638671875,0.045502085238695145,0.06252102553844452,0.025700904428958893
1750742400977578800,27.183578857421875,0.02588045597076416,0.0474686399102211,-0.028767243027687073
1750742401002651600,27.208651611328126,0.0004492453299462795,-0.009228665381669998,-0.12992940843105316
1750742401027725800,27.233725830078125,0.0067618973553180695,-0.05521648749709129,-0.07591968774795532
1750742401052799700,27.2587998046875,0.019256196916103363,0.015034961514174938,0.04007421433925629
1750742401077873700,27.283873779296876,0.006071857176721096,0.10917454957962036,0.027775507420301437
1750742401102947600,27.308947509765623,0.015379803255200386,0.06667028367519379,-0.06727328151464462
1750742401128020700,27.334020751953126,0.010960903950035572,-0.04760996624827385,-0.11367745697498322
1750742401153094700,27.3590947265625,0.0019878107123076916,-0.07244829088449478,-0.03049282357096672
1750742401178168800,27.3841689453125,0.011150484904646873,-0.00813087448477745,0.06093486770987511
1750742401203242800,27.40924267578125,-0.03302231803536415,0.06286496669054031,0.050893913954496384
1750742401228315600,27.434315673828124,-0.06715768575668335,-0.03656289726495743,-0.035938527435064316
1750742401253389600,27.4593896484375,-0.05415260046720505,-0.11420580744743347,-0.031103787943720818
1750742401278463500,27.48446337890625,-0.035432491451501846,0.0031878151930868626,0.0855950117111206
1750742401303537700,27.50953759765625,0.013453157618641853,0.09412740916013718,0.06650140881538391
1750742401328610600,27.534610595703125,0.04711168631911278,0.0402417853474617,-0.03800513967871666
1750742401353684700,27.559684814453124,0.03186016157269478,-0.006098451092839241,-0.14163333177566528
1750742401378758700,27.584758544921876,0.03145706281065941,-0.006677332334220409,-0.08086507022380829
1750742401403832600,27.60983251953125,0.046822503209114075,0.07265844941139221,0.09484101831912994
1750742401428906800,27.63490673828125,0.027622386813163757,0.12618933618068695,0.0802810937166214
1750742401453979600,27.659979736328125,0.00400740560144186,0.03521624580025673,-0.03585612401366234
1750742401479053800,27.6850537109375,-0.02097134292125702,-0.09752893447875977,-0.08198899775743484
1750742401504127700,27.710127685546876,-0.007276172749698162,-0.08309103548526764,-0.017136573791503906
1750742401529201700,27.73520166015625,0.02687249146401882,0.06329178065061569,0.11812008917331696
1750742401554275800,27.76027587890625,0.0497678741812706,0.12349814921617508,0.08641747385263443
1750742401579348500,27.785348388671874,0.07384428381919861,-0.0325334407389164,-0.08638731390237808
1750742401604422700,27.810422607421874,0.08177114278078079,-0.10852501541376114,-0.11228599399328232
1750742401629496600,27.83549658203125,0.07163733243942261,-0.011390633881092072,-0.06028473377227783
1750742401654570500,27.860570556640624,0.05309019610285759,0.057519473135471344,0.0166294164955616
1750742401679643600,27.8856435546875,0.04549631476402283,0.032611582428216934,0.06383611261844635
1750742401704717600,27.910717529296875,0.03958055377006531,-0.007189546711742878,0.030194077640771866
1750742401729791700,27.935791748046874,0.038049615919589996,-0.02061154879629612,0.007691051810979843
1750742401754865700,27.96086572265625,0.023314854130148888,-0.028642211109399796,-0.011941052041947842
1750742401779938800,27.985938720703125,0.018133308738470078,-0.04142860695719719,-0.017447784543037415
1750742401805012700,28.0110126953125,0.01144024170935154,-0.023397114127874374,0.0162035021930933
1750742401830086700,28.036086669921875,0.0015623574145138264,0.03935053572058678,-0.015852589160203934
1750742401855160800,28.061160888671875,0.012156694196164608,0.038036834448575974,-0.0758833959698677
1750742401880234800,28.08623486328125,0.0036079837009310722,0.01462752465158701,-0.022182654589414597
1750742401905307600,28.1113076171875,0.009778658859431744,0.030096329748630524,-0.040418196469545364
1750742401930381800,28.1363818359375,0.0393618568778038,0.01916971057653427,-0.06444402039051056
1750742401955455700,28.161455810546876,0.05108166113495827,-0.01061740331351757,-0.023308753967285156
1750742401980529700,28.18652978515625,0.05943368375301361,-0.03368332237005234,-0.029629159718751907
1750742402005602600,28.2116025390625,0.04939669370651245,-0.012148150242865086,-0.0019821221940219402
1750742402030676500,28.236676513671874,0.020012889057397842,0.031375639140605927,-0.0072957370430231094
1750742402055751200,28.261751220703125,0.008911236189305782,-0.019079547375440598,-0.05460439622402191
1750742402080825000,28.2868251953125,-0.0018718509236350656,-0.036625076085329056,-0.022147919982671738
1750742402105899000,28.31189892578125,-0.001737319747917354,0.013982227072119713,-0.011566686443984509
1750742402130972200,28.33697216796875,0.016333183273673058,0.02564154751598835,0.022594746202230453
1750742402156046000,28.362046142578127,0.012544147670269012,0.016941796988248825,0.0016037095338106155
1750742402181120000,28.3871201171875,0.0034703819546848536,-0.012214221991598606,-0.049500223249197006
1750742402206194000,28.41219384765625,-0.015141485258936882,-0.019882820546627045,-0.0007120221853256226
1750742402231267800,28.437267822265625,-0.04802089184522629,0.010503212921321392,0.019621286541223526
1750742402256341000,28.462341064453124,-0.054056763648986816,0.025510137900710106,0.03222302347421646
1750742402281415000,28.487414794921875,-0.060404904186725616,0.03160758689045906,0.08980611711740494
1750742402306489000,28.512489013671875,-0.050069812685251236,-0.005450656171888113,0.09511193633079529
1750742402331563000,28.53756298828125,-0.029661374166607857,-0.03631553798913956,0.09580249339342117
1750742402356636200,28.56263623046875,-0.015468635596334934,0.03776203840970993,0.06018739566206932
1750742402381710000,28.5877099609375,0.009238637052476406,0.04693970829248428,-0.013197721913456917
1750742402406784000,28.612783935546876,0.014926956966519356,-0.030885301530361176,-0.030505407601594925
1750742402431858200,28.637858154296875,0.028479427099227905,-0.009365679696202278,-0.024639232084155083
1750742402456931000,28.66293115234375,0.05295391008257866,0.06268355995416641,0.02660006284713745
1750742402482005000,28.6880048828125,0.0470387302339077,0.11395598948001862,0.047975048422813416
1750742402507079200,28.7130791015625,0.04835837334394455,0.017409589141607285,-0.02078765444457531
1750742402532153000,28.738153076171876,0.06854777783155441,-0.08098925650119781,-0.0442391075193882
1750742402557227000,28.76322705078125,0.05428283289074898,-0.015264707617461681,-0.03766558691859245
1750742402582300000,28.7882998046875,0.058786459267139435,0.0027452472131699324,-0.02596750296652317
1750742402607374000,28.8133740234375,0.0544109083712101,0.022579507902264595,-0.02031475305557251
1750742402632448000,28.838447998046874,0.02874041721224785,0.05086623504757881,-0.029342638328671455
1750742402657522000,28.86352197265625,0.015278092585504055,0.010173020884394646,0.01381723489612341
1750742402682595000,28.888594970703124,0.005753817968070507,-0.014293569140136242,0.016447333618998528
1750742402707669000,28.9136689453125,0.023099591955542564,-0.030922066420316696,-0.0058244941756129265
1750742402732743000,28.938742919921875,0.03411597013473511,-0.012580521404743195,0.0038318620063364506
1750742402757817000,28.963817138671875,0.03682923689484596,0.004194603767246008,-0.035354726016521454
1750742402782891000,28.98889111328125,0.050460197031497955,-0.010450029745697975,-0.06314347684383392
1750742402807964200,29.013964111328125,0.04122522845864296,0.048398762941360474,-0.05432118847966194
1750742402833038000,29.0390380859375,0.0342254638671875,0.04057471826672554,-0.07826091349124908
1750742402858112000,29.064112060546876,0.039020948112010956,0.001009247382171452,-0.07825616002082825
1750742402883186200,29.089186279296875,0.020182432606816292,0.039725154638290405,-0.0903041884303093
1750742402908259000,29.114259033203126,-0.01102589350193739,0.04078401252627373,-0.053873930126428604
1750742402933333000,29.1393330078125,-0.045380849391222,0.004677726421505213,-0.029602183029055595
1750742402958407000,29.164406982421873,-0.04405476152896881,0.04899941012263298,-0.0441029816865921
1750742402983480800,29.189480712890624,-0.04609820246696472,0.06276103109121323,-0.019104689359664917
1750742403008555000,29.214554931640624,-0.07980992645025253,0.02588447742164135,-0.05193198844790459
1750742403033628000,29.2396279296875,-0.10991591960191727,-0.01699564792215824,-0.03711926192045212
1750742403058702000,29.2647021484375,-0.08345026522874832,-0.057983942329883575,0.035861093550920486
1750742403083776000,29.28977587890625,-0.1809825897216797,-0.09021482616662979,-0.07244103401899338
1750742403108850000,29.314849853515625,-0.08158121258020401,0.07124419510364532,-0.2542789876461029
1750742403133923000,29.339923095703124,0.05821715295314789,0.16893291473388672,-0.3420912027359009
1750742403158997000,29.3649970703125,0.054797351360321045,0.2358018010854721,-0.4597639739513397
1750742403184071200,29.3900712890625,0.12523788213729858,0.45971301198005676,-0.5873522162437439
1750742403209145000,29.41514501953125,0.12539415061473846,0.33058008551597595,-0.5407654047012329
1750742403234218200,29.44021826171875,0.047954827547073364,0.23668289184570312,-0.39998844265937805
1750742403259292200,29.465292236328125,-0.045080509036779404,0.028283236548304558,-0.32298776507377625
1750742403284366000,29.490365966796876,-0.04162627458572388,-0.12327373027801514,-0.2482348084449768
1750742403309440300,29.515440185546876,-0.04450123757123947,-0.19319121539592743,-0.13129346072673798
1750742403334514200,29.54051416015625,-0.08023753762245178,-0.19568118453025818,0.010140548460185528
1750742403359587000,29.565587158203126,-0.0576622299849987,-0.07703959941864014,0.18681028485298157
1750742403384661000,29.590660888671874,0.007239135913550854,0.033169034868478775,0.2992597818374634
1750742403409735000,29.61573486328125,0.10018089413642883,-0.023281166329979897,0.3093540668487549
1750742403434809000,29.64080908203125,0.17217886447906494,-0.12236132472753525,0.20196343958377838
1750742403459882000,29.665882080078124,0.2371184527873993,-0.18004877865314484,0.1023951843380928
1750742403484956000,29.690955810546875,0.1787203550338745,-0.1957014501094818,0.21553494036197662
1750742403510030000,29.716030029296874,-0.010876688174903393,-0.4581643044948578,0.4074660539627075
1750742403535104000,29.74110400390625,-0.06248599663376808,-0.14146701991558075,0.785210371017456
1750742403560178000,29.766177978515625,0.07741206884384155,-0.12561775743961334,0.7479690313339233
1750742403585251000,29.7912509765625,-0.02934959903359413,-0.08410993963479996,0.5981587171554565
1750742403610325000,29.816324951171875,-0.03591068461537361,-0.32791659235954285,0.10089807212352753
1750742403635399200,29.841399169921875,-0.08195557445287704,-0.4804307818412781,-0.31630784273147583
1750742403660473000,29.86647314453125,-0.08779561519622803,-0.16648341715335846,-0.11023680120706558
1750742403685546000,29.8915458984375,-0.12823176383972168,0.2708679139614105,0.04578794911503792
1750742403710620000,29.916619873046876,-0.055011406540870667,0.6594995856285095,0.20324867963790894
1750742403735693800,29.94169384765625,0.08866122364997864,0.38801902532577515,0.14230580627918243
1750742403760768000,29.96676806640625,0.10531391948461533,-0.47464025020599365,-0.22457312047481537
1750742403785841000,29.9918408203125,0.10495136678218842,-0.8605709671974182,-0.2899245619773865
1750742403810915000,30.0169150390625,0.0929504856467247,-0.6311811208724976,0.1353708803653717
1750742403835989000,30.041989013671873,-0.020791955292224884,-0.27595552802085876,0.5647738575935364
1750742403861063000,30.06706298828125,0.03959272801876068,-0.0015250167343765497,0.6457896828651428
1750742403886137000,30.09213720703125,0.20837368071079254,-0.02624659612774849,0.11922913789749146
1750742403911210000,30.1172099609375,0.22426728904247284,-0.19262509047985077,-0.38744956254959106
1750742403936284200,30.1422841796875,0.18321682512760162,-0.3317301571369171,-0.3740473985671997
1750742403961358000,30.167358154296874,0.08518703281879425,-0.22694773972034454,-0.07930951565504074
1750742403986432000,30.192431884765625,-0.053897906094789505,0.033558912575244904,0.11068515479564667
1750742404011505200,30.217505126953125,-0.14494772255420685,0.149132639169693,0.04870787635445595
1750742404036579000,30.2425791015625,-0.16775771975517273,0.05217890813946724,-0.17826740443706512
1750742404061653200,30.2676533203125,-0.12772904336452484,-0.11713757365942001,-0.2789102792739868
1750742404086727400,30.2927275390625,-0.1338578164577484,-0.11223539710044861,-0.2288029044866562
1750742404111800300,30.31780029296875,-0.21268363296985626,0.08921682834625244,-0.21074552834033966
1750742404136874500,30.34287451171875,-0.3135855197906494,0.1441023051738739,-0.24067223072052002
1750742404161948400,30.367948486328125,-0.40006205439567566,0.07395108789205551,-0.23952752351760864
1750742404187022300,30.393022216796876,-0.4530148208141327,0.027175044640898705,-0.27054211497306824
1750742404212095500,30.418095458984375,-0.46162161231040955,-0.04588795453310013,-0.2549542188644409
1750742404237169400,30.44316943359375,-0.2839188575744629,-0.1418832540512085,-0.13133098185062408
1750742404262243600,30.46824365234375,0.17927686870098114,-0.06163731962442398,-0.0708400160074234
