time,seconds_elapsed,z,y,x
1750742373867981300,0.073981201171875,-0.9169492721557617,-0.6784219145774841,-1.4261687994003296
1750742373893054000,0.099053955078125,-1.232150673866272,-1.8933762311935425,-0.5647557973861694
1750742373918128000,0.124128173828125,-1.4291622638702393,-2.19270658493042,0.26142361760139465
1750742373943201000,0.149200927734375,-1.452803134918213,-1.7932504415512085,0.7911593914031982
1750742373968274200,0.174274169921875,-0.9805679321289062,-0.4835086166858673,1.1590156555175781
1750742373993347000,0.19934716796875,-0.1566449999809265,-0.25840386748313904,1.4476770162582397
1750742374018421200,0.224421142578125,0.27243632078170776,-1.3956698179244995,1.0822359323501587
1750742374043494000,0.249493896484375,0.40558716654777527,-0.18490220606327057,0.7339397668838501
1750742374068566800,0.27456689453125,0.22828936576843262,-0.1302485466003418,0.32628756761550903
1750742374093640000,0.299639892578125,0.08691439032554626,-0.36774471402168274,0.45478853583335876
1750742374118713900,0.3247138671875,0.5367284417152405,-0.7864117622375488,0.6218481063842773
1750742374143787000,0.349787109375,0.8463733792304993,-1.3579037189483643,0.6926761865615845
1750742374168860000,0.37485986328125,0.7831230163574219,-1.336775541305542,0.8054909110069275
1750742374193933000,0.39993310546875,0.6942075490951538,-1.6521790027618408,0.7178018093109131
1750742374219007000,0.425007080078125,0.9750852584838867,-1.9225388765335083,0.7186068892478943
1750742374244079900,0.450079833984375,1.3901703357696533,-2.287510633468628,0.505693256855011
1750742374269152800,0.47515283203125,1.9457709789276123,-2.51975154876709,0.2791714370250702
1750742374294226000,0.500225830078125,2.112867832183838,-2.9768636226654053,0.1410932093858719
1750742374319299800,0.5252998046875,1.7403686046600342,-2.3653008937835693,-0.285347580909729
1750742374344373000,0.550373046875,2.209458112716675,-1.8219786882400513,-1.0437955856323242
1750742374369446000,0.57544580078125,2.827545404434204,-3.0297536849975586,-0.8234449028968811
1750742374394518800,0.600518798828125,3.1239609718322754,-4.417844295501709,0.238850399851799
1750742374419593000,0.625593017578125,3.578709840774536,-3.6739156246185303,0.7830522060394287
1750742374444665900,0.650665771484375,4.194364070892334,-2.7023065090179443,0.866951584815979
1750742374469739000,0.675739013671875,3.4200844764709473,-3.208069086074829,0.9800456762313843
1750742374494812000,0.70081201171875,3.3563623428344727,-3.099194288253784,2.047128200531006
1750742374519886000,0.725885986328125,2.6774046421051025,-3.025149345397949,2.2037816047668457
1750742374544958700,0.750958740234375,2.2358016967773438,-3.02970027923584,2.3563313484191895
1750742374570031900,0.776031982421875,2.0656824111938477,-3.89676833152771,3.4510107040405273
1750742374595105000,0.80110498046875,1.727234125137329,-4.731112003326416,3.933349609375
1750742374620179000,0.826178955078125,1.696898341178894,-4.845530986785889,2.4533426761627197
1750742374645252000,0.851252197265625,2.2718138694763184,-3.956322193145752,1.0312838554382324
1750742374670324700,0.87632470703125,2.578392267227173,-3.2513556480407715,0.1681988686323166
1750742374695399000,0.90139892578125,1.8631421327590942,-3.0177719593048096,-0.7399068474769592
1750742374720471800,0.926471923828125,2.194464921951294,-1.5522303581237793,-1.5454821586608887
1750742374745545000,0.951544921875,0.8320106863975525,0.10874538868665695,-1.739932894706726
1750742374770617900,0.976617919921875,1.3403782844543457,3.1235742568969727,-0.6640112996101379
1750742374795692000,1.001692138671875,0.7631045579910278,3.7271416187286377,-1.2246596813201904
1750742374820765000,1.026764892578125,-0.47718361020088196,-0.2675129175186157,-0.2017722725868225
1750742374845837800,1.051837890625,-0.4080143868923187,-1.2732805013656616,0.09322794526815414
1750742374870911700,1.076911865234375,0.4246988296508789,-2.3463823795318604,0.32078441977500916
1750742374895985000,1.10198486328125,0.4964832663536072,-1.3424243927001953,-0.14489060640335083
1750742374921058000,1.12705810546875,1.283408761024475,1.7745881080627441,-1.556675672531128
1750742374946132000,1.152132080078125,1.2258785963058472,1.5043352842330933,-1.7472562789916992
1750742374971205000,1.177205078125,1.3804900646209717,0.3068752586841583,0.3456000089645386
1750742374996277800,1.20227783203125,1.2317055463790894,-0.8152490258216858,-0.35009169578552246
1750742375021351000,1.227350830078125,0.5945059657096863,-0.65325528383255,-0.20152592658996582
1750742375046424800,1.2524248046875,-0.020850153639912605,-0.553882360458374,0.15565510094165802
1750742375071498000,1.277498046875,0.5163411498069763,-1.0441652536392212,0.010361826978623867
1750742375096571000,1.30257080078125,2.0185368061065674,-3.2991220951080322,0.3307289183139801
1750742375121645000,1.32764501953125,3.5959815979003906,-4.037540435791016,1.347503900527954
1750742375146718000,1.352718017578125,5.2032084465026855,-4.318146228790283,1.973145604133606
1750742375171792100,1.377792236328125,5.554617404937744,-2.978048801422119,1.5853257179260254
1750742375196864800,1.40286474609375,3.3235931396484375,-1.1935771703720093,0.39295393228530884
1750742375221938000,1.42793798828125,1.3161581754684448,0.269204318523407,0.05223603919148445
1750742375247011800,1.45301171875,1.457139015197754,0.1785992980003357,-0.22657987475395203
1750742375272085000,1.4780849609375,0.739317774772644,1.359482765197754,-0.831595242023468
1750742375297158000,1.503157958984375,0.04592008888721466,2.10927152633667,-1.162306785583496
1750742375322232000,1.528232177734375,0.3090478479862213,1.6807256937026978,-0.11857671290636063
1750742375347304700,1.5533046875,1.4707669019699097,-1.6002447605133057,-0.6256567239761353
1750742375372379000,1.57837890625,-0.726467490196228,-0.4212809205055237,0.15440449118614197
1750742375397451800,1.60345166015625,0.9472323060035706,-1.1208640336990356,-1.3986788988113403
1750742375422525000,1.62852490234375,3.956317186355591,-1.7523740530014038,-2.9858829975128174
1750742375447598800,1.653598876953125,2.2121052742004395,-1.4048808813095093,-2.190293550491333
1750742375472672000,1.678672119140625,-0.8425607681274414,1.745176076889038,0.474385142326355
1750742375497746000,1.703745849609375,0.1683242917060852,-0.1750895231962204,0.0651523694396019
1750742375522818800,1.72881884765625,0.39047160744667053,-0.787975549697876,0.04565270617604256
1750742375547892000,1.75389208984375,0.7242072224617004,-0.8480117321014404,-0.08663555979728699
1750742375572966000,1.7789658203125,0.47764432430267334,-0.127412810921669,0.14053580164909363
1750742375598038800,1.804038818359375,0.008985239081084728,-0.05892616882920265,0.07193250954151154
1750742375623113000,1.829113037109375,0.16297347843647003,-0.20545195043087006,0.33248502016067505
1750742375648185900,1.854185791015625,0.21118973195552826,-0.07604443281888962,-0.02815813384950161
1750742375673260000,1.879260009765625,0.09375951439142227,-0.05594555661082268,0.10373544692993164
1750742375698333000,1.9043330078125,-0.22827312350273132,0.039682433009147644,0.07787135988473892
1750742375723405800,1.92940576171875,-0.2265082448720932,-0.07275516539812088,-0.03086124360561371
1750742375748479700,1.954479736328125,-0.24198280274868011,-0.129691943526268,-0.048405881971120834
1750742375773553000,1.979552978515625,-0.2381390631198883,-0.14018027484416962,0.03296327590942383
1750742375798626800,2.004626708984375,-0.19134946167469025,-0.1331130415201187,0.1426468938589096
1750742375823700000,2.029699951171875,-0.11631995439529419,-0.12078101187944412,0.16500014066696167
1750742375848774000,2.05477392578125,-0.05788833275437355,-0.15147261321544647,0.17097947001457214
1750742375873847000,2.079846923828125,-0.054970309138298035,-0.15177887678146362,0.22584910690784454
1750742375898921000,2.1049208984375,-0.10216391831636429,-0.08224480599164963,0.24070528149604797
1750742375923993900,2.129993896484375,-0.0917176678776741,0.014585067518055439,0.20263832807540894
1750742375949067800,2.15506787109375,0.057248640805482864,0.07159535586833954,0.18371683359146118
1750742375974141000,2.180140869140625,0.2538708746433258,0.027767982333898544,0.2087569385766983
1750742375999214800,2.20521484375,0.35651499032974243,-0.041431330144405365,0.12933188676834106
1750742376024288000,2.2302880859375,0.3494517505168915,-0.10032474249601364,-0.033546507358551025
1750742376049361200,2.255361083984375,0.2554565370082855,-0.12330994755029678,-0.15002332627773285
1750742376074435300,2.280435302734375,0.21862608194351196,-0.21260973811149597,-0.03672099485993385
1750742376099508000,2.305508056640625,0.30228981375694275,-0.2977403402328491,0.06816520541906357
1750742376124582100,2.33058203125,0.3028362989425659,-0.3469081521034241,0.19702784717082977
1750742376149655000,2.355655029296875,0.27442675828933716,-0.3042885363101959,0.19951631128787994
1750742376174729200,2.380729248046875,0.1994025856256485,-0.2152356058359146,0.13361825048923492
1750742376199802000,2.405802001953125,0.0589543953537941,-0.2808420658111572,0.058038003742694855
1750742376224876300,2.430876220703125,-0.12281406670808792,-0.2605423629283905,0.029576534405350685
1750742376249949200,2.45594921875,-0.1567552536725998,-0.17579180002212524,0.013196495361626148
1750742376275023000,2.481023193359375,-0.1498110592365265,-0.15775208175182343,0.04013170674443245
1750742376300096300,2.50609619140625,-0.149511456489563,-0.07260442525148392,0.06811593472957611
1750742376325170200,2.531170166015625,-0.09444288164377213,-0.007123689632862806,0.06236058101058006
1750742376350243000,2.5562431640625,-0.044442031532526016,0.01423619408160448,0.03339950367808342
1750742376375317000,2.58131689453125,-0.08876208961009979,0.018336663022637367,-0.020591827109456062
1750742376400390100,2.60639013671875,-0.07397941499948502,-0.08038405328989029,-0.10139372944831848
1750742376425464000,2.631464111328125,-0.009544236585497856,-0.08704674988985062,-0.12897369265556335
1750742376450537200,2.656537109375,-0.027582358568906784,0.10355275869369507,-0.06598647683858871
1750742376475611100,2.681611083984375,-0.14390018582344055,0.18916618824005127,0.008171643130481243
1750742376500684300,2.706684326171875,-0.1173093169927597,0.1252836138010025,0.11932133138179779
1750742376525758200,2.73175830078125,-0.029219403862953186,0.10709422826766968,0.10512322187423706
1750742376550831000,2.7568310546875,-0.030521690845489502,0.23482050001621246,0.09461358934640884
1750742376575905000,2.781905029296875,-0.06843604892492294,0.2815547287464142,0.029390113428235054
1750742376600978200,2.806978271484375,-0.019151058048009872,0.2390993982553482,0.04153146594762802
1750742376626052000,2.832052001953125,0.002150502521544695,0.20054800808429718,0.09960834681987762
1750742376651125200,2.857125244140625,-0.01061882171779871,0.28675639629364014,0.10923194885253906
1750742376676199200,2.88219921875,-0.06696625053882599,0.2681821882724762,0.07826870679855347
1750742376701272300,2.907272216796875,-0.11130654811859131,0.22465601563453674,0.08472207933664322
1750742376726346200,2.93234619140625,-0.10367872565984726,0.07200681418180466,0.10126084089279175
1750742376751419100,2.957419189453125,-0.09391211718320847,0.07450352609157562,0.041673678904771805
1750742376776493000,2.9824931640625,-0.13061048090457916,0.12069046497344971,0.04520076885819435
1750742376801566200,3.007566162109375,-0.13549791276454926,0.03213902935385704,0.061232466250658035
1750742376826640100,3.03264013671875,-0.0955856442451477,0.058585282415151596,0.07019773125648499
1750742376851713300,3.05771337890625,-0.08723104000091553,0.0035396073944866657,0.050768107175827026
1750742376876787200,3.082787109375,-0.01896277256309986,-0.028722191229462624,-0.026371419429779053
1750742376901860400,3.1078603515625,0.06311798095703125,0.006567355245351791,-0.06180930510163307
1750742376926933000,3.13293310546875,0.08043598383665085,-0.0025659557431936264,-0.01519013848155737
1750742376952007200,3.158007080078125,0.11525042355060577,0.06727517396211624,0.06855668872594833
1750742376977080000,3.183080078125,0.11811039596796036,0.037401434034109116,0.0627235695719719
1750742377002154000,3.208154052734375,0.0659441277384758,0.004249872639775276,-0.05288451910018921
1750742377027227600,3.2332275390625,0.018019214272499084,-0.04439489543437958,-0.09283806383609772
1750742377052301600,3.258301513671875,-0.029317408800125122,0.06377764791250229,0.0038655782118439674
1750742377077374700,3.283374755859375,-0.05083601549267769,0.18956619501113892,0.03999881446361542
1750742377102448400,3.308448486328125,-0.09393874555826187,0.3356906473636627,0.02166481502354145
1750742377127521500,3.333521484375,-0.10973022878170013,0.1828417181968689,-0.04417411983013153
1750742377152595500,3.358595458984375,-0.11806166172027588,-0.07860053330659866,-0.014838334172964096
1750742377177668600,3.383668701171875,-0.08704967796802521,0.08943267911672592,0.07444281131029129
1750742377202742500,3.408742431640625,-0.030797326937317848,0.21444731950759888,0.07595574855804443
1750742377227815700,3.433815673828125,-0.036681849509477615,0.10270240902900696,0.034869566559791565
1750742377252888600,3.458888671875,-0.02190236933529377,0.06061354652047157,0.0073418025858700275
1750742377277962800,3.483962646484375,0.024354608729481697,0.022903984412550926,-0.05799512565135956
1750742377303035400,3.509035400390625,0.055738627910614014,-0.06525037437677383,-0.06511402130126953
1750742377328109600,3.534109619140625,0.07715710252523422,-0.13362251222133636,-0.09135095030069351
1750742377353182500,3.559182373046875,0.030973628163337708,-0.13500842452049255,-0.15959978103637695
1750742377378256600,3.584256591796875,-0.0549015998840332,0.03319976478815079,-0.13637888431549072
1750742377403329500,3.60932958984375,-0.06493479013442993,0.18864527344703674,-0.1371924728155136
1750742377428403700,3.63440380859375,-0.014562430791556835,0.166620671749115,-0.06405355036258698
1750742377453476600,3.6594765625,0.20657767355442047,0.1943361908197403,0.014117949642241001
1750742377478549500,3.684549560546875,0.24884018301963806,0.5286899209022522,0.009760485030710697
1750742377503623400,3.70962353515625,0.25056084990501404,0.4146168828010559,0.054070957005023956
1750742377528696600,3.734696533203125,0.2100728154182434,0.23282578587532043,0.14876072108745575
1750742377553770500,3.7597705078125,0.049544915556907654,0.1509532928466797,0.0655427873134613
1750742377578843600,3.78484375,-0.04701091721653938,0.26469478011131287,-0.0445735938847065
1750742377603917600,3.80991748046875,-0.02334367111325264,0.29626867175102234,-0.0019022959750145674
1750742377628990700,3.83499072265625,-0.07649584114551544,0.17665520310401917,-0.08397186547517776
1750742377654063400,3.8600634765625,-0.23263803124427795,0.07974755764007568,-0.3391501009464264
1750742377679137500,3.885137451171875,-0.3999292850494385,0.14043274521827698,-0.5389697551727295
1750742377704210400,3.91021044921875,-0.45567432045936584,0.1558966487646103,-0.6810358166694641
1750742377729284600,3.93528466796875,-0.4150073230266571,0.08314628899097443,-0.723193883895874
1750742377754357500,3.960357421875,-0.5285365581512451,0.19618628919124603,-0.6748956441879272
1750742377779431700,3.985431640625,-0.6133020520210266,0.3211521804332733,-0.6037242412567139
1750742377804504600,4.010504638671875,-0.5737482309341431,0.3298934996128082,-0.46858692169189453
1750742377829578800,4.035578857421875,-0.3198927938938141,0.2026045024394989,-0.3317475914955139
1750742377854651600,4.060651611328125,-0.1328003853559494,0.2370421141386032,-0.27995094656944275
1750742377879724500,4.085724609375,-0.07121478766202927,0.24144244194030762,-0.26447373628616333
1750742377904798500,4.110798583984375,-0.15203507244586945,0.2776007056236267,-0.28729090094566345
1750742377929871600,4.13587158203125,-0.2755894958972931,0.2680644690990448,-0.3565157651901245
1750742377954945500,4.160945556640625,-0.3275826573371887,0.2168620079755783,-0.46943965554237366
1750742377980018700,4.186018798828125,-0.2602134644985199,0.1774781197309494,-0.528248131275177
1750742378005092600,4.211092529296875,-0.1692683845758438,0.08503340184688568,-0.6546310782432556
1750742378030164700,4.236164794921875,-0.18763461709022522,0.09885413944721222,-0.7949650287628174
1750742378055238000,4.26123779296875,-0.2552104592323303,0.07181267440319061,-1.0061761140823364
1750742378080311800,4.286311767578125,-0.39137256145477295,0.07353067398071289,-1.1047694683074951
1750742378105384700,4.311384765625,-0.4930539131164551,0.05973896384239197,-1.0932915210723877
1750742378130459000,4.336458984375,-0.501498818397522,0.05207332223653793,-1.1487371921539307
1750742378155531800,4.36153173828125,-0.45774972438812256,0.12693291902542114,-1.1287200450897217
1750742378180606000,4.38660595703125,-0.4762384593486786,0.19864171743392944,-1.1038914918899536
1750742378205678600,4.4116787109375,-0.5302305817604065,0.35731685161590576,-0.9997051358222961
1750742378230752800,4.436752685546875,-0.5240427255630493,0.32632991671562195,-0.9182747006416321
1750742378255825700,4.46182568359375,-0.5154622793197632,0.33772557973861694,-0.8786277174949646
1750742378280898800,4.48689892578125,-0.4892541170120239,0.2662191689014435,-0.7658987641334534
1750742378305972700,4.51197265625,-0.4757516086101532,0.20091526210308075,-0.5902526378631592
1750742378331046000,4.5370458984375,-0.4165114760398865,0.19666139781475067,-0.4427933990955353
1750742378356119800,4.562119873046875,-0.39898812770843506,0.1741020232439041,-0.3458215892314911
1750742378381192700,4.587192626953125,-0.44090735912323,0.1816054880619049,-0.21292531490325928
1750742378406266600,4.6122666015625,-0.4219541549682617,0.09949569404125214,-0.01726101152598858
1750742378431339800,4.63733984375,-0.4077909588813782,0.09549403190612793,0.13592827320098877
1750742378456412700,4.66241259765625,-0.46363237500190735,0.02870568074285984,0.21671660244464874
1750742378481486800,4.68748681640625,-0.6021050214767456,-0.029256155714392662,0.3663921058177948
1750742378506559700,4.712559814453125,-0.6650751829147339,-0.14776656031608582,0.5047899484634399
1750742378531634000,4.737634033203125,-0.6354446411132812,-0.1063418835401535,0.5648418068885803
1750742378556706800,4.762706787109375,-0.6711581349372864,-0.019848007708787918,0.4007575511932373
1750742378581780700,4.78778076171875,-0.6014671921730042,-0.07929854840040207,0.3266502916812897
1750742378606853600,4.812853515625,-0.282428503036499,-0.1220521405339241,0.16845053434371948
1750742378631927800,4.837927734375,0.014366689138114452,-0.05169648304581642,0.0887887254357338
1750742378657000700,4.863000732421875,0.12115172296762466,0.13573838770389557,0.02064296044409275
1750742378682073900,4.888073974609375,0.07927697896957397,0.042762111872434616,-0.04326651245355606
1750742378707147800,4.913147705078125,0.008077367208898067,-0.11938205361366272,-0.07190481573343277
1750742378732221000,4.938220947265625,0.051415521651506424,-0.12827488780021667,-0.007142065558582544
1750742378757294800,4.963294921875,0.09781976789236069,-0.08893706649541855,0.037877339869737625
1750742378782367700,4.98836767578125,0.10614055395126343,0.0070672305300831795,0.03266660124063492
1750742378807441700,5.013441650390625,-0.022278673946857452,0.008640360087156296,0.02376365289092064
1750742378832514800,5.038514892578125,-0.1250457912683487,-0.045028459280729294,0.06915350258350372
1750742378857588700,5.063588623046875,-0.15006805956363678,-0.12329210340976715,0.05230821296572685
1750742378882662000,5.088661865234375,-0.13197560608386993,-0.0683247298002243,0.13883565366268158
1750742378907734800,5.11373486328125,-0.0828341618180275,0.12227744609117508,0.12181272357702255
1750742378932809000,5.13880908203125,-0.07709558308124542,0.05603823438286781,0.09454541653394699
1750742378957881600,5.163881591796875,-0.05648591369390488,0.01227264478802681,0.048109740018844604
1750742378982955800,5.188955810546875,0.000740625080652535,-0.06343010812997818,0.09825386852025986
1750742379008028700,5.214028564453125,0.12161298096179962,0.022518891841173172,0.10611498355865479
1750742379033102800,5.239102783203125,0.16426776349544525,-0.004089017398655415,0.1003284677863121
1750742379058175700,5.26417578125,0.15826714038848877,-0.0847628265619278,0.05054626613855362
1750742379083250000,5.28925,0.09256641566753387,-0.12481196969747543,0.017231184989213943
1750742379108322800,5.31432275390625,0.041908301413059235,-0.21525372564792633,0.05187225341796875
1750742379133396700,5.339396728515625,-0.01509799249470234,-0.1844494640827179,0.1314041018486023
1750742379158470000,5.364469970703125,-0.007241667713969946,-0.22598466277122498,0.23069046437740326
1750742379183542800,5.389542724609375,-0.010312558151781559,-0.12919314205646515,0.24273301661014557
1750742379208616700,5.41461669921875,-0.04674060642719269,-0.10419351607561111,0.26173466444015503
1750742379233689900,5.43968994140625,-0.04891188070178032,-0.16826890408992767,0.2407636046409607
1750742379258763800,5.464763671875,-0.0420241504907608,-0.15709906816482544,0.18871691823005676
1750742379283837000,5.4898369140625,-0.046900395303964615,-0.12408839166164398,0.15101134777069092
1750742379308910800,5.514910888671875,-0.06094590947031975,-0.15519970655441284,0.08435136824846268
1750742379333984000,5.53998388671875,-0.04338209331035614,-0.17060396075248718,0.029023662209510803
1750742379359058000,5.565057861328125,-0.06350120902061462,-0.13207733631134033,0.003183542750775814
1750742379384130800,5.590130859375,-0.07308193296194077,-0.013187973760068417,0.06187988072633743
1750742379409204700,5.615204833984375,-0.028482774272561073,0.09708739817142487,0.0307504553347826
1750742379434278000,5.64027783203125,-0.07469714432954788,0.15814249217510223,0.011629225686192513
1750742379459350800,5.665350830078125,-0.10837973654270172,0.12490838021039963,0.02022377960383892
1750742379484424700,5.6904248046875,-0.16125306487083435,0.03779052197933197,0.013636982999742031
1750742379509497900,5.715497802734375,-0.1816321164369583,-0.012004198506474495,0.07124675065279007
1750742379534571800,5.74057177734375,-0.1526726335287094,-0.005119927227497101,0.1829434484243393
1750742379559645000,5.76564501953125,-0.1454237699508667,0.10426914691925049,0.19681932032108307
1750742379584718800,5.79071875,-0.16395831108093262,0.15273575484752655,0.1528414785861969
1750742379609791700,5.815791748046875,-0.1718873381614685,0.05008154362440109,0.08385628461837769
1750742379634865700,5.84086572265625,-0.13468670845031738,-0.07931292802095413,0.0704222321510315
1750742379659938800,5.865938720703125,-0.09688713401556015,-0.04641037434339523,0.10700021684169769
1750742379685012700,5.8910126953125,-0.07619889825582504,0.0319635272026062,0.11350898444652557
1750742379710086000,5.9160859375,-0.015561915002763271,0.008251272141933441,0.07114661484956741
1750742379735159800,5.941159912109375,0.05494660511612892,-0.06484903395175934,0.030184533447027206
1750742379760233000,5.96623291015625,0.06793803721666336,-0.08507467806339264,-0.03323119133710861
1750742379785307000,5.991306884765625,0.056708820164203644,-0.13408829271793365,-0.054248057305812836
1750742379810379800,6.0163798828125,0.08138806372880936,-0.19266346096992493,-0.044793836772441864
1750742379835453700,6.04145361328125,0.08406853675842285,-0.2176247388124466,0.004800081718713045
1750742379860526800,6.06652685546875,0.06220425292849541,-0.21554826200008392,0.10193382203578949
1750742379885600800,6.091600830078125,0.040165528655052185,-0.12577150762081146,0.07301748543977737
1750742379910674000,6.116673828125,0.03019731678068638,-0.037886396050453186,-0.046005308628082275
1750742379935746800,6.141746826171875,-0.004860801622271538,-0.03730263188481331,-0.08803052455186844
1750742379960821000,6.166821044921875,-0.028504079207777977,-0.09204710274934769,-0.05805478245019913
1750742379985893600,6.1918935546875,-0.08210072666406631,-0.05820578336715698,-0.036609143018722534
1750742380010967800,6.2169677734375,-0.11995197087526321,0.10812780261039734,-0.032277777791023254
1750742380036041200,6.242041259765625,-0.12664316594600677,0.15478186309337616,-0.0821063220500946
1750742380061115400,6.267115478515625,-0.178703173995018,0.12149607390165329,-0.10114632546901703
1750742380086188000,6.29218798828125,-0.21265500783920288,0.004266384057700634,0.008566856384277344
1750742380111262200,6.31726220703125,-0.16740337014198303,-0.0980629175901413,0.10819438099861145
1750742380136335000,6.342335205078125,-0.14613643288612366,-0.034385137259960175,0.17909012734889984
1750742380161409000,6.367408935546875,-0.1253800243139267,-0.020252274349331856,0.14970214664936066
1750742380186482200,6.392482177734375,-0.09767595678567886,-0.1258777678012848,0.008564726449549198
1750742380211556000,6.41755615234375,-0.08487041294574738,-0.19842493534088135,-0.040823329240083694
1750742380236629200,6.442629150390625,-0.03798732906579971,-0.15547481179237366,0.050924964249134064
1750742380261703200,6.467703125,-0.018158763647079468,-0.010801514610648155,0.09027104079723358
1750742380286776000,6.492776123046875,0.004316185135394335,0.12241192907094955,0.07675682753324509
1750742380311850000,6.51785009765625,-0.009988185949623585,0.04793476685881615,-0.04328249394893646
1750742380336923100,6.542923095703125,-0.03749171644449234,-0.08799830079078674,-0.10519113391637802
1750742380361997000,6.5679970703125,-0.0566805899143219,-0.10901809483766556,-0.08928433805704117
1750742380387070200,6.5930703125,-0.09690577536821365,-0.019703131169080734,0.011286210268735886
1750742380412144000,6.61814404296875,-0.14220747351646423,0.0435597263276577,0.11774900555610657
1750742380437217300,6.64321728515625,-0.16123177111148834,0.028087027370929718,0.14590899646282196
1750742380462291200,6.668291259765625,-0.19474418461322784,-0.013204751536250114,0.0996786579489708
1750742380487364000,6.693364013671875,-0.1919015347957611,-0.07143183797597885,0.08439264446496964
1750742380512438000,6.71843798828125,-0.18292401731014252,-0.13175803422927856,0.055101603269577026
1750742380537511200,6.74351123046875,-0.2182907909154892,-0.0921000987291336,0.11154969781637192
1750742380562585000,6.768585205078125,-0.19151350855827332,0.004634699318557978,0.18014900386333466
1750742380587658200,6.793658203125,-0.1330142468214035,0.07600342482328415,0.12561491131782532
1750742380612732200,6.818732177734375,-0.08124452084302902,0.1397043764591217,0.036680784076452255
1750742380637805300,6.843805419921875,-0.04097752645611763,0.008956743404269218,-0.04967913776636124
1750742380662879200,6.868879150390625,-0.042383141815662384,-0.04321538284420967,-0.055815327912569046
1750742380687952400,6.893952392578125,-0.05619562789797783,0.04749321565032005,-0.01912868767976761
1750742380713026000,6.919026123046875,-0.07088722288608551,0.08247623592615128,-0.05284111201763153
1750742380738099200,6.94409912109375,-0.0833878368139267,0.06185511127114296,-0.02918584831058979
1750742380763173000,6.969173095703125,-0.05726834759116173,0.11064528673887253,0.013916081748902798
1750742380788246300,6.994246337890625,-0.09070833027362823,0.1785132884979248,0.008918393403291702
1750742380813320200,7.0193203125,-0.06869970262050629,0.22210337221622467,-0.013346698135137558
1750742380838393000,7.04439306640625,-0.03239575773477554,0.2192913442850113,-0.014373612590134144
1750742380863467300,7.06946728515625,-0.14161092042922974,0.11744886636734009,0.10482894629240036
1750742380888540200,7.0945400390625,-0.16256654262542725,0.17789515852928162,0.23112615942955017
1750742380913614300,7.1196142578125,-0.0681188628077507,0.16880792379379272,0.21312639117240906
1750742380938687000,7.14468701171875,-0.23108328878879547,0.3641816973686218,0.13652189075946808
1750742380963761200,7.16976123046875,-0.18730224668979645,0.0371130146086216,0.1183391585946083
1750742380988834000,7.194833984375,-0.1925574690103531,-0.23748525977134705,0.008730906993150711
1750742381013908200,7.219908203125,-0.26668575406074524,0.17720620334148407,0.025177258998155594
1750742381038980900,7.24498095703125,-0.18617892265319824,0.3003089725971222,0.0727975070476532
1750742381064055000,7.270054931640625,-0.13619858026504517,0.08197502791881561,0.093536876142025
1750742381089128000,7.2951279296875,-0.10887827724218369,0.3510773479938507,0.08738923072814941
1750742381114202000,7.3202021484375,-0.09695716947317123,0.3327089846134186,0.007238471880555153
1750742381139274800,7.345274658203125,-0.053463224321603775,0.06371985375881195,0.03121890500187874
1750742381164349000,7.370348876953125,-0.06475129723548889,-0.002546248259022832,-0.026971429586410522
1750742381189421800,7.395421875,-0.13603372871875763,0.10055670142173767,0.07008054852485657
1750742381214496000,7.42049609375,0.0900137796998024,0.10836055874824524,0.13815148174762726
1750742381239569000,7.44556884765625,0.33191242814064026,0.3257405459880829,0.012198076583445072
1750742381264643000,7.47064306640625,0.2596653997898102,0.82645183801651,-0.06270545721054077
1750742381289716000,7.495716064453125,0.0530104860663414,-0.011719506233930588,-0.43181905150413513
1750742381314790000,7.520789794921875,-0.034566231071949005,-0.5167246460914612,-0.4073728322982788
1750742381339862800,7.54586279296875,-0.14963608980178833,-0.04212348535656929,0.15361112356185913
1750742381364936700,7.570936767578125,-0.19689814746379852,0.43513256311416626,0.48645591735839844
1750742381390009900,7.596009765625,-0.21475917100906372,0.5125842094421387,0.3457283675670624
1750742381415083800,7.621083740234375,-0.10829424858093262,0.3081285357475281,0.045398373156785965
1750742381440158000,7.646157958984375,0.12664130330085754,0.02064349316060543,-0.13800154626369476
1750742381465230800,7.67123095703125,0.276824951171875,0.01236159447580576,-0.17759954929351807
1750742381490305000,7.696304931640625,0.2628297507762909,0.2067372053861618,-0.0006370281334966421
1750742381515378000,7.7213779296875,0.19827526807785034,0.22695991396903992,0.11123570799827576
1750742381540452000,7.7464521484375,0.143438920378685,0.1399294137954712,0.0347830131649971
1750742381565524700,7.771524658203125,0.16254763305187225,-0.05571066588163376,-0.1179274320602417
1750742381590599000,7.796598876953125,0.18115460872650146,-0.21857255697250366,-0.1644456684589386
1750742381615671800,7.821671875,0.17062845826148987,-0.1675780713558197,-0.07987698912620544
1750742381640746000,7.84674609375,0.1613963544368744,-0.11517345905303955,0.03531085327267647
1750742381665819000,7.87181884765625,0.12921950221061707,-0.15909963846206665,0.1614176481962204
1750742381690893000,7.89689306640625,0.14889733493328094,-0.2219555675983429,0.23029552400112152
1750742381715966000,7.921966064453125,0.24952194094657898,-0.22957433760166168,0.25779426097869873
1750742381741039900,7.947039794921875,0.39541763067245483,-0.2093612104654312,0.26531341671943665
1750742381766112800,7.97211279296875,0.4809112250804901,-0.04331684857606888,0.15585830807685852
1750742381791186700,7.997186767578125,0.4536154270172119,0.010673416778445244,-0.01949593611061573
1750742381816259800,8.022259765625,0.4139862656593323,-0.16184189915657043,-0.1344025433063507
1750742381841333800,8.047333740234375,0.3007630407810211,-0.2172612100839615,-0.04463697597384453
1750742381866408000,8.072407958984375,0.2287980318069458,-0.08724835515022278,0.1503373086452484
1750742381891480800,8.097480712890626,0.18258126080036163,0.11021625250577927,0.23145639896392822
1750742381916555000,8.122554931640625,0.16635382175445557,0.21563082933425903,0.19325041770935059
1750742381941628000,8.1476279296875,0.22339659929275513,0.1435297280550003,0.1340653896331787
1750742381966702000,8.1727021484375,0.26035088300704956,0.1566399484872818,0.12780243158340454
1750742381991774700,8.197774658203125,0.27437376976013184,0.30873945355415344,0.11737775802612305
1750742382016849000,8.222848876953124,0.28604188561439514,0.34735795855522156,0.0760020911693573
1750742382041922000,8.247922119140625,0.30270394682884216,0.29077965021133423,0.03925419598817825
1750742382066996200,8.272996337890625,0.27592453360557556,0.3147597908973694,0.006707970052957535
1750742382092069000,8.298069091796876,0.31322503089904785,0.4144483208656311,-0.043112315237522125
1750742382117143000,8.32314306640625,0.3553287982940674,0.45465245842933655,-0.11272361874580383
1750742382142216000,8.3482158203125,0.3481830060482025,0.45338401198387146,-0.21036122739315033
1750742382167289900,8.373289794921876,0.3383130729198456,0.4223981201648712,-0.24503850936889648
1750742382192363000,8.398363037109375,0.33046552538871765,0.5195749998092651,-0.169252410531044
1750742382217437000,8.42343701171875,0.29047709703445435,0.6612368226051331,-0.1357378512620926
1750742382242511000,8.448510986328126,0.2661674916744232,0.5322591066360474,-0.21164274215698242
1750742382267584000,8.473583984375,0.3249053955078125,0.33376944065093994,-0.21917256712913513
1750742382292658200,8.498658203125,0.38971927762031555,0.33138006925582886,-0.1874532550573349
1750742382317731000,8.52373095703125,0.4441015422344208,0.4351642429828644,-0.22564378380775452
1750742382342805200,8.54880517578125,0.44483259320259094,0.3748159408569336,-0.2902166545391083
1750742382367878000,8.5738779296875,0.3965212404727936,0.2568155527114868,-0.33172547817230225
1750742382392952000,8.5989521484375,0.3886396288871765,0.25309643149375916,-0.364658385515213
1750742382418025000,8.62402490234375,0.3477821946144104,0.35929957032203674,-0.46774882078170776
1750742382443099100,8.64909912109375,0.37501248717308044,0.3411535918712616,-0.5528109669685364
1750742382468172000,8.674172119140625,0.40811824798583984,0.3102087378501892,-0.49568110704421997
1750742382493246000,8.699245849609374,0.3804762363433838,0.40747296810150146,-0.33018749952316284
1750742382518319000,8.724319091796875,0.3321276009082794,0.5272361040115356,-0.2519606053829193
1750742382543393000,8.74939306640625,0.3040672242641449,0.40321242809295654,-0.2753724455833435
1750742382568467200,8.77446728515625,0.33186769485473633,0.25461044907569885,-0.29765990376472473
1750742382593539800,8.799539794921875,0.3531855046749115,0.20622481405735016,-0.3368872106075287
1750742382618614000,8.824614013671875,0.40950414538383484,0.1716116964817047,-0.38323500752449036
1750742382643687000,8.84968701171875,0.44088444113731384,0.14345702528953552,-0.3598702847957611
1750742382668761000,8.874760986328125,0.41524967551231384,0.2627357542514801,-0.24783483147621155
1750742382693834000,8.899833984375,0.37225452065467834,0.31699633598327637,-0.24966229498386383
1750742382718908200,8.924908203125,0.3570271134376526,0.20597712695598602,-0.34754252433776855
1750742382743981000,8.94998095703125,0.3642447888851166,0.07205554842948914,-0.36940014362335205
1750742382769055200,8.97505517578125,0.37451741099357605,0.13724467158317566,-0.28217044472694397
1750742382794128000,9.0001279296875,0.4319303631782532,0.2665472626686096,-0.17040236294269562
1750742382819202000,9.0252021484375,0.4425715506076813,0.28242263197898865,-0.21533814072608948
1750742382844276000,9.05027587890625,0.35454875230789185,0.06782379001379013,-0.35567793250083923
1750742382869349000,9.07534912109375,0.39158719778060913,-0.1485774964094162,-0.3974762558937073
1750742382894423000,9.100423095703125,0.4307639002799988,0.034158769994974136,-0.2786729037761688
1750742382919496000,9.125495849609376,0.4424959421157837,0.36548689007759094,-0.11078111082315445
1750742382944570000,9.150570068359375,0.4567350447177887,0.33965903520584106,-0.2601040303707123
1750742382969643000,9.17564306640625,0.4597444236278534,0.026432406157255173,-0.5546280741691589
1750742382994717200,9.20071728515625,0.44871786236763,-0.08925158530473709,-0.5339403748512268
1750742383019789800,9.225789794921875,0.4132770597934723,-0.03453826904296875,-0.35661083459854126
1750742383044864000,9.250864013671874,0.3281882703304291,0.11153318732976913,-0.2616736888885498
1750742383069938000,9.27593798828125,0.2853989899158478,0.08934798836708069,-0.2701182961463928
1750742383095011000,9.301010986328125,0.28568899631500244,-0.061162956058979034,-0.2518301010131836
1750742383120085000,9.3260849609375,0.28011447191238403,-0.10070104151964188,-0.1574423611164093
1750742383145158100,9.351158203125,0.23077888786792755,-0.028974926099181175,-0.09814201295375824
1750742383170232000,9.376232177734375,0.19312924146652222,-0.027603931725025177,-0.08971497416496277
1750742383195305000,9.401304931640626,0.1727624535560608,0.029624737799167633,-0.10054764896631241
1750742383220379000,9.42637890625,0.16603636741638184,0.23467908799648285,-0.1714085042476654
1750742383245452000,9.4514521484375,0.14127962291240692,0.3909054398536682,-0.27478548884391785
1750742383270526000,9.47652587890625,0.1322067677974701,0.28516408801078796,-0.3497849106788635
1750742383295599900,9.501599853515625,0.09163777530193329,0.04747031256556511,-0.25694337487220764
1750742383320673000,9.526673095703124,0.04170297086238861,-0.11317582428455353,0.004561994690448046
1750742383345747000,9.551746826171875,0.017367271706461906,-0.08333563804626465,0.23424606025218964
1750742383370820000,9.576820068359375,0.058405254036188126,-0.08696179836988449,0.3290625810623169
1750742383395894000,9.60189404296875,0.12319783121347427,-0.10516263544559479,0.2090083360671997
1750742383420967000,9.626966796875,0.1717427372932434,-0.15938939154148102,0.020804613828659058
1750742383446040800,9.652040771484375,0.24413330852985382,-0.17480163276195526,-0.04784182459115982
1750742383471114000,9.677114013671876,0.29782822728157043,-0.15722957253456116,-0.06390095502138138
1750742383496188000,9.70218798828125,0.29240044951438904,-0.04723648726940155,-0.03635268285870552
1750742383521261800,9.72726171875,0.32206857204437256,0.04681384563446045,-0.04586895555257797
1750742383546335000,9.7523349609375,0.34965333342552185,0.14575320482254028,-0.11891812831163406
1750742383571409000,9.777408935546875,0.30716127157211304,0.16874480247497559,-0.2649485766887665
1750742383596482000,9.80248193359375,0.2185235470533371,-0.01432008296251297,-0.3572891652584076
1750742383621556000,9.827555908203125,0.15068671107292175,-0.12534354627132416,-0.323901891708374
1750742383646628900,9.85262890625,0.09247134625911713,-0.03624029457569122,-0.20223937928676605
1750742383671702800,9.877702880859376,-0.003736414946615696,0.1478608399629593,-0.06909465044736862
1750742383696777000,9.90277685546875,-0.0943821594119072,0.1456967443227768,-0.019576365128159523
1750742383721849900,9.927849853515625,-0.10878107696771622,0.05987931415438652,-0.0339885950088501
1750742383746924000,9.952924072265626,-0.08693889528512955,0.04358396306633949,-0.0022157500497996807
1750742383771997000,9.977996826171875,-0.02321850322186947,0.03394198790192604,0.013974404893815517
1750742383797071000,10.003071044921874,0.0401785783469677,0.0823364183306694,-0.0021766014397144318
1750742383822144000,10.02814404296875,0.07144302129745483,0.1409030556678772,0.015900669619441032
1750742383847218000,10.053218017578125,0.08620811998844147,0.12575313448905945,0.00803422462195158
1750742383872292000,10.0782919921875,0.07635468989610672,0.08779589831829071,-0.004226969089359045
1750742383897364700,10.10336474609375,0.0781794935464859,0.04965490475296974,0.017246365547180176
1750742383922439000,10.12843896484375,0.08594340085983276,0.019837619736790657,0.04868444800376892
1750742383947511800,10.15351171875,0.0916614755988121,0.07729505747556686,0.017723603174090385
1750742383972586000,10.1785859375,0.08489305526018143,0.12123002111911774,-0.055386293679475784
1750742383997660000,10.203659912109375,0.06172781437635422,0.07271335273981094,-0.07441005110740662
1750742384022733000,10.228733154296876,0.09750285744667053,0.06372278928756714,-0.0709676519036293
1750742384047806700,10.253806640625,0.13039129972457886,0.16487176716327667,-0.03434279188513756
1750742384072879900,10.2788798828125,0.1515575647354126,0.16830618679523468,-0.05733839049935341
1750742384097953800,10.303953857421876,0.1830422580242157,0.04640078917145729,-0.12831243872642517
1750742384123027000,10.32902685546875,0.21587876975536346,0.006229666527360678,-0.15582607686519623
1750742384148100900,10.354100830078124,0.21149307489395142,0.06568500399589539,-0.10503240674734116
1750742384173174800,10.3791748046875,0.2041558027267456,0.11471033841371536,-0.0897969976067543
1750742384198247700,10.40424755859375,0.1903371810913086,0.10747293382883072,-0.09288706630468369
1750742384223321600,10.429321533203124,0.20311343669891357,0.03945925831794739,-0.13713069260120392
1750742384248394800,10.454394775390625,0.16418175399303436,-0.07124675065279007,-0.09912658482789993
1750742384273468700,10.47946875,0.24604065716266632,0.0501776821911335,0.037091176956892014
1750742384298542800,10.50454296875,0.17405115067958832,0.09878569841384888,-0.1315833330154419
1750742384323615700,10.52961572265625,0.10746334493160248,-0.019144399091601372,-0.21098147332668304
1750742384348690000,10.55468994140625,0.1246013194322586,-0.0993012860417366,-0.23218663036823273
1750742384373762800,10.5797626953125,0.009579656645655632,0.032765135169029236,-0.14441177248954773
1750742384398836700,10.604836669921875,0.03762407600879669,0.31366443634033203,0.014958709478378296
1750742384423911000,10.629910888671875,0.045583728700876236,0.19451196491718292,-0.009951966814696789
1750742384448983600,10.654983642578125,0.06042765825986862,0.12930339574813843,0.013979198411107063
1750742384474057700,10.6800576171875,0.024636903777718544,-0.04953080043196678,-0.005854426883161068
1750742384499130600,10.705130615234374,0.05806063860654831,-0.09990342706441879,0.07703832536935806
1750742384524204800,10.730204833984375,0.237638920545578,0.006120476871728897,0.0405743233859539
1750742384549278700,10.75527880859375,0.1221030056476593,0.15044143795967102,-0.05844679847359657
1750742384574352000,10.780351806640626,0.12907329201698303,-0.16295883059501648,-0.10840556770563126
1750742384599425800,10.80542578125,0.09674065560102463,-0.2460734248161316,-0.1435568928718567
1750742384624499000,10.8304990234375,0.14584694802761078,0.36252573132514954,0.05050711706280708
1750742384649572900,10.85557275390625,0.16486404836177826,0.5788868069648743,0.09564024209976196
1750742384674646800,10.880646728515625,0.010778877884149551,0.2783123254776001,-0.04397092014551163
1750742384699720000,10.905719970703124,0.024175643920898438,-0.22957593202590942,-0.3424960970878601
1750742384724793600,10.930793701171876,-0.07634004205465317,-0.34053146839141846,-0.1357325315475464
1750742384749866800,10.95586669921875,-0.04358715936541557,-0.1376766413450241,0.2064352035522461
1750742384774940700,10.980940673828124,0.16229330003261566,0.10840956121683121,0.14290282130241394
1750742384800014800,11.006014892578126,0.3465113341808319,0.47889015078544617,0.050336141139268875
1750742384825087700,11.031087646484375,0.27359291911125183,0.38051164150238037,-0.22478730976581573
1750742384850161700,11.05616162109375,0.11095447838306427,-0.06702643632888794,-0.38233646750450134
1750742384875234800,11.08123486328125,0.26428651809692383,-0.2222605049610138,-0.2677161395549774
1750742384900308700,11.106308837890625,0.3153366446495056,0.26897260546684265,-0.029859362170100212
1750742384925383000,11.1313828125,-0.02551228366792202,0.9582807421684265,0.036922864615917206
1750742384950455800,11.156455810546875,-0.08652690052986145,-0.029142439365386963,-0.2489919811487198
1750742384975529700,11.18152978515625,-0.003353186184540391,-0.6029148697853088,-0.5029739141464233
1750742385000602600,11.2066025390625,-0.118539959192276,0.12954974174499512,0.22703181207180023
1750742385025676800,11.2316767578125,0.03413799777626991,0.6453646421432495,0.3250710368156433
1750742385050751500,11.25675146484375,0.19976744055747986,0.4910874366760254,0.04412271827459335
1750742385075824400,11.281824462890626,0.31635531783103943,0.09921953082084656,-0.16236041486263275
1750742385100898600,11.306898681640625,0.4043980836868286,-0.2714379131793976,-0.23823121190071106
1750742385125971500,11.331971435546874,0.3542129397392273,-0.21018493175506592,-0.10838479548692703
1750742385151045600,11.357045654296876,0.31408974528312683,0.05134547874331474,0.13361690938472748
1750742385176119600,11.38211962890625,0.2204812467098236,0.21928095817565918,0.08100750297307968
1750742385201192400,11.4071923828125,0.09453342854976654,0.13052818179130554,-0.022399315610527992
1750742385226266400,11.432266357421875,0.12176291644573212,-0.07694058865308762,-0.1685301661491394
1750742385251340300,11.45734033203125,0.10613229125738144,0.13155722618103027,-0.159783273935318
1750742385276413400,11.482413330078124,0.11068923026323318,0.4323689937591553,-0.03262585401535034
1750742385301487400,11.5074873046875,0.14781689643859863,0.3199865221977234,-0.051546283066272736
1750742385326560500,11.532560546875,0.1404585838317871,0.15327370166778564,-0.18778614699840546
1750742385351634400,11.557634521484376,0.20081007480621338,0.11334360390901566,-0.25192171335220337
1750742385376708600,11.58270849609375,0.24411332607269287,-0.032229840755462646,-0.188437819480896
1750742385401781500,11.607781494140625,0.20005080103874207,0.009797236882150173,-0.04391952231526375
1750742385426855700,11.632855712890626,0.05456843599677086,0.07833102345466614,-0.059731774032115936
1750742385451929600,11.6579296875,0.034558508545160294,0.07562551647424698,-0.032771527767181396
1750742385477002500,11.68300244140625,0.1667487770318985,0.20831245183944702,-0.008355401456356049
1750742385502076400,11.708076416015626,0.3140559196472168,0.5154495239257812,0.18535947799682617
1750742385527149300,11.7331494140625,0.17989440262317657,0.45329052209854126,-0.04614352807402611
1750742385552223500,11.758223388671874,-0.02708354964852333,-0.14151398837566376,-0.3502117991447449
1750742385577297400,11.78329736328125,-0.0026117621455341578,-0.30995625257492065,-0.21613362431526184
1750742385602370600,11.80837060546875,-0.020551614463329315,0.06180770695209503,0.3721463978290558
1750742385627444500,11.833444580078124,0.06985205411911011,0.5634045004844666,0.6562337875366211
1750742385652518400,11.858518310546875,0.1871618926525116,0.5180377960205078,0.10622230917215347
1750742385677591600,11.883591552734375,0.3092787563800812,-0.08484911173582077,-0.41660335659980774
1750742385702665500,11.90866552734375,0.4455026388168335,-0.3894686698913574,-0.368208110332489
1750742385727738400,11.93373828125,0.46728941798210144,-0.11385758966207504,-0.07554402947425842
1750742385752812300,11.958812255859375,0.3738473653793335,0.3196307420730591,0.19407840073108673
1750742385777886500,11.983886474609376,0.307683527469635,0.2577785551548004,0.19220858812332153
1750742385802959400,12.00895947265625,0.31425565481185913,-0.04663674533367157,0.004335892386734486
1750742385828033500,12.034033447265625,0.3559868633747101,-0.14859986305236816,-0.10974327474832535
1750742385853107500,12.059107421875,0.34926077723503113,-0.10129732638597488,-0.13795360922813416
1750742385878180600,12.0841806640625,0.2970162332057953,-0.016281768679618835,-0.11897938698530197
1750742385903254500,12.109254638671874,0.3393844664096832,0.05191699415445328,-0.09163297712802887
1750742385928327700,12.13432763671875,0.374187707901001,0.12301939725875854,-0.08640386164188385
1750742385953401600,12.159401611328125,0.38682201504707336,0.145399272441864,-0.0864400863647461
1750742385978475500,12.1844755859375,0.42053550481796265,0.031808264553546906,-0.12032747268676758
1750742386003548400,12.20954833984375,0.3852454125881195,0.025236913934350014,-0.10317085683345795
1750742386028622300,12.234622314453125,0.32941678166389465,0.13529923558235168,-0.07448968291282654
1750742386053696500,12.259696533203124,0.28547221422195435,0.18142785131931305,-0.12370063364505768
1750742386078769200,12.28476904296875,0.284111887216568,0.1647689789533615,-0.1784520298242569
1750742386103843300,12.30984326171875,0.25877270102500916,0.2377537041902542,-0.19794291257858276
1750742386128917200,12.334917236328126,0.26145610213279724,0.24780501425266266,-0.18519967794418335
1750742386153990100,12.359990234375,0.27573704719543457,0.16728486120700836,-0.17849384248256683
1750742386179064300,12.385064208984375,0.26430755853652954,0.14128096401691437,-0.14067961275577545
1750742386204137200,12.41013720703125,0.27280810475349426,0.11386159062385559,-0.1623508334159851
1750742386229211400,12.43521142578125,0.2935442626476288,0.09084441512823105,-0.21432028710842133
1750742386254285300,12.460285400390624,0.27820873260498047,0.10346407443284988,-0.18803036212921143
1750742386279358500,12.4853583984375,0.25334519147872925,0.14498355984687805,-0.1494012027978897
1750742386304432400,12.510432373046875,0.24349254369735718,0.19447334110736847,-0.14059919118881226
1750742386329506300,12.53550634765625,0.2446206659078598,0.2144601047039032,-0.1658209264278412
1750742386354579200,12.5605791015625,0.25853675603866577,0.20252114534378052,-0.19770188629627228
1750742386379653000,12.585653076171875,0.2679970860481262,0.1417131870985031,-0.2157280296087265
1750742386404726300,12.610726318359376,0.26964664459228516,0.1047367975115776,-0.18901865184307098
1750742386429800200,12.63580029296875,0.29523831605911255,0.13210690021514893,-0.1706196814775467
1750742386454874400,12.660874267578125,0.2933724820613861,0.141718789935112,-0.1895853728055954
1750742386479947300,12.685947265625,0.3085240125656128,0.13813017308712006,-0.20709753036499023
1750742386505021400,12.711021484375,0.3384550213813782,0.15423138439655304,-0.20856653153896332
1750742386530095400,12.736095458984375,0.33685311675071716,0.23712439835071564,-0.22591355443000793
1750742386555168500,12.76116845703125,0.36028599739074707,0.20807278156280518,-0.29639944434165955
1750742386580242400,12.786242431640625,0.38078808784484863,0.12924960255622864,-0.3128649592399597
1750742386605316400,12.81131640625,0.34380903840065,0.12710042297840118,-0.25228816270828247
1750742386630389200,12.83638916015625,0.3061293065547943,0.14621873199939728,-0.2055765986442566
1750742386655463200,12.861463134765625,0.29298368096351624,0.1563856154680252,-0.1837455928325653
1750742386680537300,12.886537353515624,0.2729971706867218,0.1385703980922699,-0.16325071454048157
1750742386705610200,12.9116103515625,0.23168569803237915,0.09008834511041641,-0.16040804982185364
1750742386730684200,12.93668408203125,0.19843213260173798,0.057139717042446136,-0.1790669560432434
1750742386755757300,12.96175732421875,0.18177112936973572,0.05968623235821724,-0.12137117236852646
1750742386780831200,12.986831298828125,0.1825690120458603,0.14347140491008759,-0.062314774841070175
1750742386805905400,13.011905517578125,0.19738072156906128,0.20538590848445892,-0.10039984434843063
1750742386830978300,13.036978271484376,0.23849619925022125,0.14914873242378235,-0.14624056220054626
1750742386856052500,13.062052490234375,0.26716911792755127,0.0734449252486229,-0.14017708599567413
1750742386881126400,13.08712646484375,0.27601107954978943,0.09834494441747665,-0.10134925693273544
1750742386906199300,13.11219921875,0.2802670896053314,0.12444072961807251,-0.13803988695144653
1750742386931273200,13.137273193359375,0.2624515891075134,0.03833886608481407,-0.20285484194755554
1750742386956347100,13.16234716796875,0.2344529777765274,-0.054291732609272,-0.18163451552391052
1750742386981420300,13.187420166015626,0.22673992812633514,0.0231788232922554,-0.09298799932003021
1750742387006494200,13.212494140625,0.20414727926254272,0.18141986429691315,-0.04014236107468605
1750742387031568400,13.237568359375,0.20101965963840485,0.2009349763393402,-0.07160361111164093
1750742387056641800,13.262641845703126,0.2038431465625763,0.07639623433351517,-0.13887372612953186
1750742387081715500,13.287715576171875,0.1852891594171524,0.030168289318680763,-0.1781873106956482
1750742387106788600,13.31278857421875,0.16162005066871643,0.07300630211830139,-0.17727011442184448
1750742387131862500,13.337862548828125,0.13519378006458282,0.1523171067237854,-0.16270822286605835
1750742387156936700,13.362936767578125,0.09296509623527527,0.24242275953292847,-0.1441396027803421
1750742387182009600,13.388009521484374,0.08159339427947998,0.2905000150203705,-0.1316850632429123
1750742387207083800,13.413083740234375,0.14276087284088135,0.26106300950050354,-0.12002120912075043
1750742387232157700,13.43815771484375,0.24978506565093994,0.19485977292060852,-0.159127339720726
1750742387257230800,13.46323095703125,0.29302388429641724,0.12432354688644409,-0.19044557213783264
1750742387282304800,13.4883046875,0.2808316648006439,0.038538869470357895,-0.17599819600582123
1750742387307378700,13.513378662109375,0.3111778497695923,-0.0031963258516043425,-0.20763202011585236
1750742387332451800,13.538451904296876,0.3413187265396118,-0.002016279147937894,-0.24324993789196014
1750742387357525500,13.563525390625,0.32448193430900574,-0.1099238395690918,-0.3364110291004181
1750742387382599700,13.588599609375,0.3282388746738434,-0.009193764999508858,-0.40870627760887146
1750742387407672600,13.613672607421876,0.3221982717514038,0.18866898119449615,-0.37054771184921265
1750742387432746800,13.638746826171875,0.30295801162719727,0.34974655508995056,-0.47063568234443665
1750742387457820700,13.663820556640625,0.3464503586292267,0.29281800985336304,-0.5854759812355042
1750742387482893800,13.688893798828126,0.36891838908195496,0.11265011876821518,-0.4503732919692993
1750742387507967700,13.7139677734375,0.39753058552742004,-0.011430819518864155,-0.2630569338798523
1750742387533041700,13.739041748046875,0.40471285581588745,-0.1176786944270134,-0.16297027468681335
1750742387558114800,13.76411474609375,0.28071022033691406,0.046487607061862946,-0.03328099101781845
1750742387583188700,13.789188720703125,0.12231925129890442,0.16754771769046783,0.23295176029205322
1750742387608262700,13.8142626953125,0.045766156166791916,0.1781950294971466,0.463957816362381
1750742387633335600,13.83933544921875,0.026822825893759727,0.0830506756901741,0.5330663323402405
1750742387658409500,13.864409423828125,0.04356558620929718,0.039749808609485626,0.4543027877807617
1750742387683483600,13.889483642578124,0.12691161036491394,0.007016896735876799,0.27869129180908203
1750742387708556500,13.914556640625,0.10734722763299942,-0.08907448500394821,0.14903156459331512
1750742387733630700,13.939630615234375,0.2332388460636139,-0.29867538809776306,0.0766172781586647
1750742387758704600,13.96470458984375,0.27014732360839844,-0.3997524678707123,0.012322179973125458
1750742387783777800,13.98977783203125,0.2319307029247284,-0.18012210726737976,0.0021845910232514143
1750742387808851700,14.014851806640625,0.5331571102142334,-0.10366940498352051,-0.026643328368663788
1750742387833925600,14.039925537109376,0.7398266792297363,0.7110887765884399,-0.3340855538845062
1750742387858998800,14.064998779296875,0.6397139430046082,0.8111200332641602,-0.6263691186904907
1750742387884072700,14.09007275390625,0.6456685066223145,-0.12961658835411072,-0.6630344390869141
1750742387909147000,14.11514697265625,0.5551324486732483,-0.55559903383255,-0.13478204607963562
1750742387934219500,14.140219482421875,0.3328581154346466,-0.2833842933177948,0.44245943427085876
1750742387959293700,14.165293701171874,-0.004896488040685654,0.07679304480552673,0.5445538759231567
1750742387984367600,14.19036767578125,-0.07871611416339874,-0.029880400747060776,0.22350366413593292
1750742388009440800,14.215440673828125,0.09243432432413101,-0.2883028984069824,-0.1578064113855362
1750742388034514700,14.2405146484375,0.3915845453739166,-0.3075615465641022,-0.2964543104171753
1750742388059587600,14.265587646484375,0.5843987464904785,-0.05203923210501671,-0.15503191947937012
1750742388084660500,14.290660400390625,0.5202420949935913,0.12720215320587158,0.10898560285568237
1750742388109734700,14.315734619140626,0.31001803278923035,0.24107412993907928,0.12296587228775024
1750742388134808600,14.34080859375,0.03374704346060753,0.07170534878969193,-0.14090386033058167
1750742388159881500,14.365881591796875,-0.22904250025749207,-0.0955776572227478,-0.371908038854599
1750742388184955600,14.39095556640625,-0.33309033513069153,-0.11269325762987137,-0.4794299900531769
1750742388210029600,14.416029541015625,-0.3063548803329468,0.09969676285982132,-0.5800729393959045
1750742388235102700,14.441102783203124,-0.3377301096916199,0.7824811935424805,-0.622696578502655
1750742388260176400,14.46617626953125,-0.23025451600551605,1.556453824043274,-0.3189529478549957
1750742388285250300,14.491250244140625,-0.5082781314849854,1.4837749004364014,-0.1746857911348343
1750742388310323500,14.516323486328124,-0.6754612922668457,-0.14891891181468964,-0.7108466625213623
1750742388335397400,14.5413974609375,-0.42533746361732483,-0.4616483151912689,0.03592044860124588
1750742388360471600,14.566471435546875,-0.33415988087654114,-0.20712335407733917,0.725204348564148
1750742388385544400,14.59154443359375,-0.25418728590011597,-0.13472266495227814,0.482412725687027
1750742388410618600,14.61661865234375,0.1241653561592102,-0.39233583211898804,-0.07609130442142487
1750742388435692500,14.641692626953125,0.27234017848968506,-0.4570218622684479,-0.10424438118934631
1750742388460765700,14.666765625,0.2674538195133209,-0.46406805515289307,0.1577235907316208
1750742388485839600,14.691839599609375,0.28427886962890625,-0.22678548097610474,0.3664666712284088
1750742388510913500,14.71691357421875,0.4616895914077759,-0.05289091169834137,0.2767290771007538
1750742388535986400,14.741986328125,0.512333333492279,0.088371142745018,0.20099568367004395
1750742388561060400,14.767060302734375,0.396712988615036,0.1106404960155487,0.14986646175384521
1750742388586134500,14.792134521484375,0.2781924605369568,0.12533341348171234,-0.024055268615484238
1750742388611207400,14.81720751953125,0.18392616510391235,0.20303434133529663,-0.2684341073036194
1750742388636281600,14.842281494140625,0.12238423526287079,0.33372604846954346,-0.49988412857055664
1750742388661355500,14.86735546875,0.02949264459311962,0.3653622567653656,-0.5955451130867004
1750742388686429400,14.892429443359376,0.009190568700432777,0.252549946308136,-0.5426281094551086
1750742388711502600,14.917502685546875,0.04086460918188095,0.13304780423641205,-0.442851722240448
1750742388736576500,14.942576416015624,0.07228858023881912,0.186324343085289,-0.25646933913230896
1750742388761650700,14.967650634765626,0.08955438435077667,0.27375805377960205,-0.22768695652484894
1750742388786723600,14.9927236328125,0.040408410131931305,0.31526979804039,-0.16164828836917877
1750742388811797500,15.017797607421874,-0.056359414011240005,0.1963716447353363,-0.08936050534248352
1750742388836871700,15.04287158203125,-0.11164956539869308,0.021864552050828934,-0.05356868728995323
1750742388861944300,15.0679443359375,-0.14287406206130981,-0.07810012996196747,0.011390073224902153
1750742388887018500,15.0930185546875,-0.19675327837467194,-0.05955387279391289,0.05478175729513168
1750742388912092400,15.118092529296876,-0.21049624681472778,-0.13151222467422485,0.16253910958766937
1750742388937165600,15.14316552734375,-0.1526302844285965,-0.10822926461696625,0.22566375136375427
1750742388962239500,15.168239501953124,-0.16930806636810303,-0.04728762060403824,0.2255937159061432
1750742388987313400,15.1933134765625,-0.1872124969959259,-0.08966384083032608,0.16470958292484283
1750742389012386600,15.218386474609375,-0.21275141835212708,-0.12053706496953964,0.03928535431623459
1750742389037460500,15.24346044921875,-0.20056025683879852,-0.198952779173851,0.06154405325651169
1750742389062535000,15.268534912109375,-0.21721886098384857,-0.08535031974315643,0.1035010889172554
1750742389087607800,15.29360791015625,-0.1964872181415558,0.009382848627865314,0.23077142238616943
1750742389112682000,15.318681884765626,-0.16423209011554718,0.038831550627946854,0.1335064023733139
1750742389137756000,15.343755859375,-0.12173282355070114,-0.009921340271830559,0.012031362392008305
1750742389162829800,15.368829833984375,-0.10023046284914017,-0.04400207847356796,-0.1033966988325119
1750742389187903000,15.393903076171876,-0.13436393439769745,-0.013852698728442192,-0.051422711461782455
1750742389212977000,15.418976806640625,-0.13029488921165466,0.01696939580142498,-0.003989148885011673
1750742389238050800,15.44405078125,-0.14928269386291504,0.013028450310230255,0.02881806530058384
1750742389263124000,15.4691240234375,-0.11476492881774902,-0.00723634148016572,0.03255421295762062
1750742389288198000,15.494197998046875,-0.13310106098651886,-0.02803216688334942,0.07737654447555542
1750742389313272000,15.51927197265625,-0.11293134838342667,0.005209675524383783,0.1019521951675415
1750742389338344700,15.5443447265625,-0.12057141959667206,0.04812838137149811,0.10302704572677612
1750742389363419000,15.5694189453125,-0.08156436681747437,0.04603593423962593,0.07130906730890274
1750742389388492800,15.594492919921874,-0.06908346712589264,-0.020659739151597023,0.05511464923620224
1750742389413566000,15.61956591796875,-0.06346578896045685,-0.053163353353738785,0.016227705404162407
1750742389438639900,15.644639892578125,-0.065928153693676,-0.08524086326360703,0.05702679976820946
1750742389463713800,15.6697138671875,-0.0306367389857769,-0.06631457805633545,0.05004692077636719
1750742389488788000,15.6947880859375,-0.003456783015280962,0.024774588644504547,0.05012814700603485
1750742389513860900,15.71986083984375,-0.02190636470913887,0.1399717479944229,0.005609150044620037
1750742389538935000,15.74493505859375,-0.028270253911614418,0.16443608701229095,0.010387393645942211
1750742389564009000,15.770009033203126,-0.02166374959051609,0.06585011631250381,0.02690724842250347
1750742389589082000,15.79508203125,-0.0010844392236322165,0.045875079929828644,0.02972673624753952
1750742389614156000,15.820156005859374,0.022793995216488838,-0.048353418707847595,0.01709110289812088
1750742389639230000,15.84522998046875,0.03747626766562462,-0.011726963333785534,-0.07065126299858093
1750742389664302800,15.870302734375,0.06184499338269234,-0.06497074663639069,-0.05201127007603645
1750742389689376800,15.895376708984376,0.026343457400798798,0.056225456297397614,-0.08613195270299911
1750742389714451000,15.920450927734375,0.0179933812469244,0.042506180703639984,-0.017965417355298996
1750742389739524900,15.94552490234375,-0.027539482340216637,0.02967081032693386,0.014133395627140999
1750742389764598000,15.970597900390626,-0.03586425632238388,0.01793905347585678,0.02748941443860531
1750742389789672000,15.995671875,-0.03020983375608921,0.040466465055942535,0.06322557479143143
1750742389814745900,16.020745849609376,-0.04387424886226654,0.09086626023054123,0.0025939189363271
1750742389839819000,16.045819091796876,0.015171229839324951,-0.05800950527191162,0.008984706364572048
1750742389864893000,16.070892822265623,0.010355168953537941,-0.10936057567596436,0.019290341064333916
1750742389889966800,16.095966796875,0.036122582852840424,-0.05169781669974327,0.010877414606511593
1750742389915040000,16.1210400390625,0.01883387565612793,0.1067269816994667,0.011449728161096573
1750742389940114000,16.146114013671873,0.0021704763639718294,0.09673026949167252,-0.10367818921804428
1750742389965188000,16.17118798828125,-0.03172863647341728,0.04595097899436951,-0.06796733289957047
1750742389990261800,16.19626171875,-0.07390351593494415,0.02538898028433323,0.04000227898359299
1750742390015335000,16.2213349609375,-0.052686113864183426,0.03664962202310562,0.05992778018116951
1750742390040408800,16.246408935546874,0.03795696794986725,-0.03075125440955162,0.052984654903411865
1750742390065482800,16.271482666015626,0.0875205248594284,0.0718851089477539,0.03371322154998779
1750742390090556000,16.296555908203125,0.07686149328947067,0.03310788422822952,-0.12862801551818848
1750742390115629800,16.3216298828125,0.039857666939496994,-0.06931968778371811,-0.1825554370880127
1750742390140704000,16.3467041015625,-0.022424615919589996,0.007901598699390888,-0.11391405016183853
1750742390165778000,16.37177783203125,-0.03642218932509422,0.038057103753089905,-0.03864619508385658
1750742390190851000,16.39685107421875,-0.03235341235995293,0.03434945270419121,0.032818932086229324
1750742390215925000,16.421925048828125,-0.019218968227505684,0.0732707530260086,0.00199284334667027
1750742390240999000,16.4469990234375,0.009799101389944553,-0.051782239228487015,-0.05868967995047569
1750742390266071800,16.47207177734375,0.016582705080509186,-0.05897729843854904,-0.05110765993595123
1750742390291145700,16.497145751953123,0.027108583599328995,0.03139307722449303,-0.04791346192359924
1750742390316220000,16.522219970703127,0.008441953919827938,-0.018563032150268555,-0.08157102763652802
1750742390341293800,16.5472939453125,-0.007168697193264961,-0.036624591797590256,-0.12543489038944244
1750742390366367000,16.572366943359373,0.012839632108807564,-0.10473626852035522,-0.0683891773223877
1750742390391441000,16.59744091796875,0.006429137196391821,0.038248851895332336,-0.054787080734968185
1750742390416514800,16.622514892578124,0.02310505323112011,-0.022065620869398117,-0.0964873880147934
1750742390441588000,16.647587890625,-0.08133560419082642,-0.14257419109344482,0.012544021010398865
1750742390466662000,16.672661865234375,0.04162467643618584,-0.15707190334796906,0.12018392980098724
1750742390491735800,16.69773583984375,-0.03248976543545723,0.07250029593706131,0.03543122857809067
1750742390516810000,16.72281005859375,0.03163355961441994,-0.1895691305398941,0.05329118296504021
1750742390541883000,16.7478828125,0.04320206493139267,-0.2495025098323822,-0.13294127583503723
1750742390566957000,16.77295703125,-0.055439822375774384,-0.2099769413471222,-0.10096362978219986
1750742390592031000,16.798031005859375,-0.05586406588554382,-0.19545552134513855,0.11147592961788177
1750742390617104000,16.823103759765626,-0.10016760975122452,-0.1296863555908203,0.017610153183341026
1750742390642177800,16.848177734375,-0.2239292412996292,-0.07260017096996307,0.10559593141078949
1750742390667251700,16.873251708984377,0.051358796656131744,-0.19625499844551086,0.22213107347488403
1750742390692326000,16.898325927734376,0.006140450481325388,0.1659916341304779,-0.051474642008543015
1750742390717398800,16.923398681640624,-0.09104309231042862,0.3557533025741577,0.09332036226987839
1750742390742473000,16.948472900390627,-0.09782323241233826,-0.20356138050556183,-0.28620219230651855
1750742390767547000,16.973546875,-0.14290282130241394,-0.3525599241256714,-0.08384589850902557
1750742390792620000,16.9986201171875,-0.2915700674057007,-0.2497328668832779,0.3599989116191864
1750742390817694000,17.02369384765625,-0.31001752614974976,-0.12460637837648392,0.42033204436302185
1750742390842768000,17.048767822265624,-0.2181728184223175,0.013914217241108418,0.271185964345932
1750742390867842000,17.073842041015624,-0.07259271293878555,-0.08381873369216919,0.12258051335811615
1750742390892915000,17.0989150390625,-0.034151311963796616,-0.07570115476846695,0.08514072746038437
1750742390917989000,17.123989013671874,0.01986212097108364,-0.14646773040294647,0.08026234805583954
1750742390943063000,17.14906298828125,0.07624763250350952,-0.059373047202825546,-0.009372728876769543
1750742390968136000,17.174135986328125,0.08729682117700577,-0.0388890765607357,0.013641243800520897
1750742390993209900,17.1992099609375,0.10657650977373123,-0.03326234966516495,-0.019892215728759766
1750742391018283800,17.22428369140625,0.08351273834705353,0.012887302786111832,-0.0070278155617415905
1750742391043358200,17.249358154296875,0.01073999609798193,0.05578416958451271,0.015621303580701351
1750742391068431400,17.274431396484374,-0.05534075200557709,0.0831923559308052,0.0742366835474968
1750742391093505300,17.29950537109375,-0.037339381873607635,-0.07258711755275726,0.13884364068508148
1750742391118579500,17.324579345703125,-0.044817004352808,-0.024512266740202904,0.036316461861133575
1750742391143652000,17.349652099609376,-0.06454277038574219,-0.0326831117272377,0.032993901520967484
1750742391168726300,17.374726318359375,-0.08546030521392822,-0.0799931064248085,-0.031615715473890305
1750742391193800200,17.39980029296875,-0.08262696862220764,-0.0510951429605484,-0.10631285607814789
1750742391218874000,17.4248740234375,-0.11121014505624771,-0.019992882385849953,0.008538627065718174
1750742391243947300,17.449947265625,-0.07050079852342606,0.034207504242658615,0.13097000122070312
1750742391269021200,17.475021240234376,0.048458345234394073,0.20232486724853516,0.07234370708465576
1750742391294095400,17.500095458984376,0.04669293761253357,0.35692697763442993,-0.06877453625202179
1750742391319169300,17.525169189453123,0.006431533955037594,0.05338998883962631,-0.22714713215827942
1750742391344242400,17.550242431640626,0.04458664357662201,-0.31321436166763306,-0.4495474398136139
1750742391369316400,17.57531640625,-0.0465691015124321,-0.23064519464969635,-0.22740519046783447
1750742391394390300,17.600390380859373,-0.1809266358613968,-0.10370375961065292,0.23858168721199036
1750742391419463400,17.62546337890625,-0.1800973266363144,0.09170088917016983,0.3866822123527527
1750742391444537300,17.650537353515624,-0.08280912786722183,0.19068153202533722,0.2610875368118286
1750742391469611300,17.675611328125,0.008102667517960072,-0.005882923025637865,0.098076231777668
1750742391494685200,17.700685302734374,0.014614095911383629,-0.2293650060892105,-0.12190912663936615
1750742391519758300,17.72575830078125,0.029571207240223885,-0.14841316640377045,-0.16835598647594452
1750742391544832300,17.750832275390625,-0.07823514938354492,0.05073694512248039,-0.1262948215007782
1750742391569906200,17.77590625,-0.11000160127878189,0.034141991287469864,-0.03373399376869202
1750742391594979300,17.800979248046875,-0.10653363168239594,0.1751025766134262,0.021572669968008995
1750742391620053200,17.82605322265625,0.009317069314420223,0.28632256388664246,0.10612137615680695
1750742391645127400,17.85112744140625,0.052144695073366165,0.2225361317396164,0.052984122186899185
1750742391670201300,17.876201416015626,0.00043755737715400755,0.007837682962417603,-0.12462128698825836
1750742391695274200,17.901274169921876,-0.0009182579233311117,-0.2537662386894226,-0.15247848629951477
1750742391720348400,17.926348388671876,-0.08931603282690048,-0.17104844748973846,-0.056767407804727554
1750742391745422300,17.95142236328125,-0.14512629806995392,-0.18118736147880554,0.1542484313249588
1750742391770496300,17.976496337890627,-0.1126762107014656,-0.15201030671596527,0.2249646782875061
1750742391795569200,18.001569091796874,0.026427878066897392,-0.03339390829205513,0.20326124131679535
1750742391820643000,18.02664306640625,0.08801001310348511,0.07220522314310074,0.20432597398757935
1750742391845717200,18.05171728515625,0.052140165120363235,0.04200443997979164,0.027883563190698624
1750742391870790100,18.0767900390625,0.06211503595113754,-0.15651318430900574,-0.23604688048362732
1750742391895864300,18.1018642578125,0.04217221960425377,-0.14805524051189423,-0.14265967905521393
1750742391920938200,18.126938232421875,0.05339238420128822,0.009843842126429081,0.021216072142124176
1750742391946012200,18.15201220703125,-0.03608822822570801,0.10789743810892105,0.03688664361834526
1750742391971085300,18.177085205078125,0.008565790951251984,-0.08571357280015945,0.05546831712126732
1750742391996159200,18.2021591796875,0.020258933305740356,-0.11519370228052139,0.015723302960395813
1750742392021233400,18.2272333984375,-0.0816061794757843,-0.19603554904460907,0.10518847405910492
1750742392046307000,18.25230712890625,-0.13786253333091736,-0.16420918703079224,0.1269688606262207
1750742392086425000,18.292425048828125,-0.08204453438520432,-0.15292882919311523,0.1187325119972229
1750742392126542000,18.3325419921875,-0.021464545279741287,-0.009801497682929039,0.14931385219097137
1750742392166660000,18.37266015625,0.060144562274217606,-0.046177349984645844,0.03423387184739113
1750742392206778000,18.412778076171875,0.026563700288534164,-0.16958370804786682,-0.029322203248739243
1750742392246896400,18.452896484375,-0.1624208688735962,-0.2572768032550812,-0.03491963446140289
1750742392287014100,18.49301416015625,-0.1315673440694809,-0.18637840449810028,0.2926933765411377
1750742392327132200,18.533132080078126,-0.14124101400375366,0.363309770822525,0.3069863021373749
1750742392367250200,18.573250244140624,-0.06030967831611633,-0.019647205248475075,-0.22409620881080627
1750742392407368200,18.6133681640625,-0.10746999830007553,-0.018519887700676918,0.02280837669968605
1750742392447486200,18.653486328125,-0.09086785465478897,0.3156684637069702,0.06630472093820572
1750742392487604200,18.693604248046874,-0.08955252170562744,0.2206096053123474,-0.003498328384011984
1750742392527722200,18.73372216796875,0.025557557120919228,-0.041979674249887466,-0.13023149967193604
1750742392567840000,18.773840087890626,0.10980132967233658,-0.08713702857494354,0.15404468774795532
1750742392607958000,18.8139580078125,0.11161840707063675,-0.09618964791297913,0.03152303770184517
1750742392648076000,18.854075927734375,-0.022166023030877113,-0.24715173244476318,-0.09055306762456894
1750742392688194300,18.8941943359375,-0.07087443768978119,0.26379597187042236,-0.053050436079502106
1750742392728312300,18.934312255859375,-0.09170275926589966,0.33537960052490234,-0.04920855909585953
1750742392768430300,18.974430419921877,-0.07109654694795609,0.14993250370025635,-0.4054127335548401
1750742392808548000,19.014548095703127,-0.1589028388261795,0.11427730321884155,-0.2121032029390335
1750742392848666000,19.054666015625,-0.1279507726430893,0.02201581932604313,-0.01938728056848049
1750742392888784100,19.0947841796875,-0.01125345379114151,-0.211541548371315,0.16129274666309357
1750742392928902100,19.134902099609373,-0.008670985698699951,-0.2506338059902191,0.23178529739379883
1750742392969020200,19.175020263671875,0.0280340313911438,-0.084543377161026,0.1550806611776352
1750742393009138200,19.21513818359375,0.12878674268722534,0.04543432593345642,0.026813238859176636
1750742393049256200,19.255256103515624,0.04813716933131218,0.09289851784706116,-0.11857777833938599
1750742393089374000,19.2953740234375,-0.03311028331518173,-0.06835455447435379,-0.13029062747955322
1750742393129492000,19.335491943359376,-0.11705844849348068,0.04532140865921974,0.1506403684616089
1750742393169610000,19.37560986328125,-0.1262223869562149,0.06311319023370743,0.06509032100439072
1750742393209728000,19.41572802734375,-0.08393857628107071,-0.07434213906526566,0.08855942636728287
1750742393249846000,19.455845947265626,-0.06486048549413681,0.07731689512729645,0.019043998792767525
1750742393289964000,19.495964111328124,0.0021291973534971476,0.0296148844063282,0.02088184654712677
1750742393330082000,19.53608203125,-0.005370264407247305,0.019093800336122513,0.05878342315554619
1750742393370199800,19.57619970703125,0.04410674050450325,0.013649765402078629,-0.01076609455049038
1750742393410318000,19.616318115234375,0.06343702971935272,0.09508683532476425,0.22007031738758087
1750742393450436000,19.65643603515625,0.14386315643787384,0.17915937304496765,0.04475575312972069
1750742393490554000,19.69655419921875,0.10669741779565811,-0.24480707943439484,-0.14496198296546936
1750742393530672000,19.736672119140625,-0.03688451275229454,-0.14559315145015717,-0.11908084899187088
1750742393570790100,19.7767900390625,-0.08212176710367203,0.008035289123654366,0.20941686630249023
1750742393610908000,19.816907958984373,0.10393199324607849,0.38956135511398315,0.11328741163015366
1750742393651026000,19.85702587890625,-0.07017136365175247,0.13452425599098206,-0.2143343985080719
1750742393691144000,19.89714404296875,0.03873807564377785,-0.23499174416065216,-0.32054445147514343
1750742393731262000,19.937261962890624,-0.17674042284488678,0.30211272835731506,0.3146207928657532
1750742393771380000,19.9773798828125,-0.11863743513822556,0.32562658190727234,-0.006766825914382935
1750742393811498000,20.017498046875,0.01791961118578911,-0.09653612971305847,-0.0774010494351387
1750742393851616300,20.0576162109375,0.10881143808364868,0.047625310719013214,0.014871357940137386
1750742393891734000,20.097734130859376,0.0031585090328007936,0.11878151446580887,0.09383195638656616
1750742393931852000,20.13785205078125,-0.03740809112787247,-0.1147947609424591,-0.024505609646439552
1750742393971970000,20.177969970703124,-0.06067293509840965,-0.24716292321681976,0.02014894410967827
1750742394012088000,20.218088134765626,-0.05874986574053764,-0.009943976998329163,-0.04069549962878227
1750742394052206000,20.2582060546875,0.11719959229230881,0.13281716406345367,-0.0841875821352005
1750742394092324000,20.298323974609374,0.18796004354953766,0.18929961323738098,-0.22789815068244934
1750742394132442000,20.338442138671876,0.08489970862865448,-0.2513616681098938,-0.4877864420413971
1750742394172560000,20.378559814453126,-0.11738122254610062,-0.22308315336704254,0.08141016960144043
1750742394212678000,20.418677978515625,-0.16445524990558624,0.041131991893053055,0.3338860869407654
1750742394252796000,20.4587958984375,-0.11582673341035843,0.023085877299308777,0.024511734023690224
1750742394292914200,20.4989140625,-0.10119639337062836,-0.05270235985517502,0.011481686495244503
1750742394333032200,20.5390322265625,-0.10783245414495468,0.22653833031654358,0.25792714953422546
1750742394373150200,20.579150146484373,0.0080925477668643,0.2667912244796753,0.1767721027135849
1750742394413268000,20.61926806640625,-0.03647146001458168,-0.16400118172168732,-0.0003765709698200226
1750742394453386000,20.659385986328125,-0.13183872401714325,-0.1376635879278183,0.13800127804279327
1750742394493504000,20.69950390625,0.009711483493447304,0.13121527433395386,0.4278663992881775
1750742394533622000,20.7396220703125,0.17530150711536407,0.5287261605262756,0.08034783601760864
1750742394573740000,20.779739990234376,0.18924635648727417,-0.18441937863826752,-0.5977992415428162
1750742394613858000,20.819858154296874,0.08729629218578339,-0.0741083174943924,-0.12512622773647308
1750742394653976000,20.85997607421875,0.062003184109926224,0.5075559020042419,0.4140656292438507
1750742394694093800,20.90009375,0.04754621535539627,0.271707147359848,0.036015257239341736
1750742394734211800,20.9402119140625,0.07740983366966248,-0.38490161299705505,-0.2723177969455719
1750742394774330000,20.980330078125,-0.037205424159765244,-0.09989064186811447,0.04181801900267601
1750742394814448000,21.0204482421875,-0.003608583239838481,0.09562399238348007,0.08226291835308075
1750742394854566100,21.060566162109374,0.12160898745059967,0.09977453202009201,-0.12265374511480331
1750742394894684200,21.10068408203125,0.26927992701530457,0.07946260273456573,-0.372801810503006
1750742394934802200,21.14080224609375,0.13849449157714844,-0.03380190581083298,-0.3682882785797119
1750742394974920000,21.180919921875,0.003974501509219408,-0.062314506620168686,-0.19232523441314697
1750742395015038000,21.221037841796875,-0.05313831940293312,0.05127676948904991,0.17478352785110474
1750742395055156500,21.261156494140625,-0.03753245994448662,0.05073055624961853,0.07056338340044022
1750742395095274500,21.3012744140625,-0.011866512708365917,-0.18550701439380646,-0.06944911181926727
1750742395135392500,21.341392578125,-0.12916357815265656,-0.078733429312706,-0.007510913070291281
1750742395175510500,21.381510498046875,-0.12797288596630096,-0.04689773544669151,-0.06374728679656982
1750742395215628300,21.421628173828125,0.037159353494644165,-0.027337880805134773,0.16915494203567505
1750742395255746300,21.461746337890624,0.06837213039398193,0.13246962428092957,0.0905887559056282
1750742395295864300,21.5018642578125,0.05535992980003357,-0.0630793645977974,0.021318605169653893
1750742395335982600,21.541982666015624,-0.14719824492931366,-0.0413447767496109,0.15439675748348236
1750742395376100600,21.5821005859375,-0.08117501437664032,-0.033847976475954056,0.2653419077396393
1750742395416218600,21.622218505859376,0.09752708673477173,0.13417404890060425,0.2750113308429718
1750742395456336400,21.66233642578125,0.08186264336109161,0.01576884277164936,-0.20145481824874878
1750742395496454400,21.702454345703124,0.09725544601678848,0.020185962319374084,-0.2034601867198944
1750742395536572400,21.742572509765626,0.08796234428882599,0.14038987457752228,-0.05681854113936424
1750742395576690400,21.7826904296875,0.024536767974495888,0.09748128056526184,-0.09541520476341248
1750742395616808400,21.822808349609375,-0.02334021031856537,-0.02604837901890278,-0.19917862117290497
1750742395656926500,21.862926513671876,-0.08484911173582077,0.037392113357782364,0.1828766018152237
1750742395697044500,21.90304443359375,0.007664044853299856,0.2064567655324936,0.06898678839206696
1750742395737162200,21.943162353515625,0.11052864044904709,-0.20735585689544678,-0.15878218412399292
1750742395777280500,21.983280517578127,0.05531518533825874,-0.1922711730003357,-0.21142089366912842
1750742395817398500,22.0233984375,0.12016768753528595,0.019815515726804733,-0.04321218654513359
1750742395857516500,22.0635166015625,0.15261749923229218,0.12314403802156448,-0.03844432905316353
1750742395897634600,22.103634521484373,0.11031132936477661,-0.2275972068309784,-0.3036706745624542
1750742395937752600,22.143752685546875,0.006404103245586157,-0.14531750977039337,-0.06921076029539108
1750742395977870600,22.18387060546875,-0.06784828752279282,0.08401687443256378,0.030656179413199425
1750742396017988400,22.22398828125,-0.07273972034454346,-0.13917706906795502,0.08493246883153915
1750742396058106600,22.264106689453126,-0.040103744715452194,-0.04542820155620575,-0.029277993366122246
1750742396098224600,22.304224609375,0.08539479225873947,0.06448258459568024,-0.26650840044021606
1750742396138342700,22.3443427734375,-0.10436848551034927,-0.2111351490020752,-0.22147805988788605
1750742396178460700,22.384460693359376,0.0874084085226059,0.044919539242982864,0.21617171168327332
1750742396218578700,22.42457861328125,0.07776670157909393,0.28350868821144104,0.35812219977378845
1750742396258696400,22.464696533203124,-0.1853855699300766,-0.717802882194519,-0.500537633895874
1750742396298814500,22.504814453125,-0.04917313903570175,-0.7986982464790344,0.1337577998638153
1750742396338932500,22.544932373046876,0.23914361000061035,0.2827134430408478,0.46103551983833313
1750742396379050500,22.585050537109375,0.0391513966023922,0.7854855060577393,-0.2740456759929657
1750742396419168500,22.62516845703125,0.15047259628772736,-0.7859763503074646,-0.8420079350471497
1750742396459286800,22.665286865234375,-0.145864799618721,0.15439462661743164,0.5951437950134277
1750742396499404500,22.705404541015625,-0.24865534901618958,0.4893883466720581,0.2410227358341217
1750742396539522600,22.7455224609375,-0.15801599621772766,-0.5176098346710205,-0.1751774102449417
1750742396579640600,22.785640625,0.036430977284908295,-0.18476559221744537,-0.103763148188591
1750742396619758600,22.825758544921875,0.011425226926803589,0.2923772633075714,0.29154157638549805
1750742396659876600,22.865876708984374,0.045471612364053726,-0.04457705467939377,0.1275840550661087
1750742396699994600,22.90599462890625,0.12220820039510727,-0.3477630317211151,-0.13240012526512146
1750742396740112600,22.946112548828125,-0.06367245316505432,-0.12294349819421768,0.08188421279191971
1750742396780230400,22.98623046875,-0.15537387132644653,0.05855998396873474,0.2013525515794754
1750742396820348400,23.026348388671874,-0.04831346869468689,0.16110366582870483,0.20657847821712494
1750742396860466400,23.066466552734376,-0.030714502558112144,0.019540412351489067,-0.09862058609724045
1750742396900584400,23.10658447265625,-0.026670493185520172,-0.11635243892669678,-0.1450490653514862
1750742396940702700,23.14670263671875,-0.06921475380659103,0.17014722526073456,0.09834521263837814
1750742396980820700,23.18682080078125,-0.12020444124937057,0.16636128723621368,0.06261864304542542
1750742397020938800,23.226938720703124,-0.09516726434230804,-0.08623022586107254,-0.03752846643328667
1750742397061056300,23.26705615234375,-0.043120574206113815,0.11740092933177948,0.09126333147287369
1750742397101174000,23.307174072265624,-0.020437363535165787,0.19431142508983612,-0.05182112008333206
1750742397141292000,23.3472919921875,-0.02268427424132824,0.004560663364827633,0.036377448588609695
1750742397181410000,23.38741015625,-0.0033417344093322754,0.029343241825699806,0.2115982621908188
1750742397221528000,23.427528076171875,-0.006245112512260675,-0.014218617230653763,0.07846684753894806
1750742397261646000,23.46764599609375,-0.08187835663557053,-0.11390552669763565,-0.015614911913871765
1750742397301764000,23.50776416015625,-0.06162155419588089,0.05260169133543968,0.08731146901845932
1750742397341882000,23.547882080078125,0.02461559697985649,0.25653883814811707,0.09100393950939178
1750742397381999900,23.587999755859375,0.03093448095023632,0.07676668465137482,-0.21797360479831696
1750742397422118000,23.628117919921873,0.015245265327394009,-0.028916070237755775,-0.05578576773405075
1750742397462236000,23.66823583984375,-0.04272695630788803,0.16693252325057983,0.02472745068371296
1750742397502354200,23.708354248046874,-0.07130906730890274,-0.0299104955047369,-0.0182328000664711
1750742397542472200,23.74847216796875,-0.050754256546497345,-0.046963781118392944,-0.01053093746304512
1750742397582590200,23.788590087890626,0.027517644688487053,0.10477861016988754,0.04590277746319771
1750742397622708000,23.8287080078125,0.06069503724575043,0.1375456154346466,0.018191253766417503
1750742397662826000,23.868825927734374,0.10323531180620193,-0.1032819151878357,0.008611864410340786
1750742397702944000,23.908944091796876,0.08243522047996521,-0.11233426630496979,0.1035466343164444
1750742397743062000,23.94906201171875,-0.02353435382246971,-0.03467568755149841,-0.016469521448016167
1750742397783180000,23.989179931640624,-0.06647329777479172,-0.06278348714113235,0.06276032328605652
1750742397823298000,24.029298095703126,0.01245214231312275,0.18219484388828278,0.14771568775177002
1750742397863416000,24.069416015625,0.05432688817381859,0.10254661738872528,-0.15453951060771942
1750742397903533800,24.109533935546875,0.03540007025003433,-0.221612811088562,-0.19585765898227692
1750742397943652000,24.149652099609376,-0.0017741979099810123,0.04211123287677765,0.09911779314279556
1750742397983770000,24.18977001953125,-0.023456057533621788,0.128421351313591,0.10915018618106842
1750742398023888100,24.22988818359375,-0.042383674532175064,0.006081860978156328,-0.04855848103761673
1750742398064007000,24.2700068359375,-0.011289938353002071,-0.051116447895765305,-0.11714526265859604
1750742398104124700,24.310124755859373,0.0016943031223490834,0.09225109964609146,0.08223548531532288
1750742398144243700,24.35024365234375,0.027874508872628212,0.09128090739250183,-0.01890311762690544
1750742398184361700,24.39036181640625,0.023488281294703484,-0.17303995788097382,-0.10911636799573898
1750742398224479700,24.430479736328124,-0.01859205961227417,-0.02383422665297985,0.1334637850522995
1750742398264597800,24.47059765625,-0.007829426787793636,0.14560726284980774,0.13512106239795685
1750742398304715500,24.510715576171876,0.0024578312877565622,0.012841762974858284,-0.10197856277227402
1750742398344833500,24.55083349609375,0.018072742968797684,-0.005902097560465336,-0.02562733180820942
1750742398384951600,24.59095166015625,0.027044134214520454,0.1026182547211647,0.03147963061928749
1750742398425069800,24.63106982421875,0.08303549885749817,0.004975051153451204,0.038473621010780334
1750742398465187800,24.671187744140624,0.09044015407562256,-0.05091085284948349,-0.11281470209360123
1750742398505305900,24.711305908203126,0.04056074097752571,-0.10013538599014282,-0.17782272398471832
1750742398545424000,24.751423828125,-0.015149392187595367,0.07886205613613129,0.013103018514811993
1750742398585541600,24.791541748046875,0.0013169331941753626,0.16182830929756165,-0.03742220625281334
1750742398625659600,24.83165966796875,0.032390695065259933,-0.037456296384334564,0.022357236593961716
1750742398665777700,24.871777587890627,0.07674644142389297,-0.0776204913854599,0.01751880533993244
1750742398705895700,24.911895751953125,0.054012902081012726,-0.0686030313372612,-0.0829034075140953
1750742398746013700,24.952013671875,0.005754824727773666,-0.10811875015497208,0.016749152913689613
1750742398786131700,24.992131591796873,-0.0017504957504570484,-0.009123457595705986,0.16997411847114563
1750742398826249500,25.03224951171875,0.09423196315765381,-0.0018343853298574686,0.007385478354990482
1750742398866367700,25.07236767578125,0.09152165800333023,-0.09092484414577484,-0.1865624189376831
1750742398906485800,25.11248583984375,-0.010791661217808723,-0.20451079308986664,-0.014650847762823105
1750742398946603800,25.152603759765626,-0.14600248634815216,-0.13381318747997284,0.23666633665561676
1750742398986721800,25.1927216796875,-0.2645552158355713,0.027269970625638962,0.16150154173374176
1750742399026839800,25.23283984375,-0.14817748963832855,-0.050751060247421265,-0.03941105678677559
1750742399066957600,25.27295751953125,0.05367707833647728,0.0032631712965667248,0.04773716256022453
1750742399107075300,25.313075439453126,0.0873575434088707,0.135986328125,0.03087269514799118
1750742399147193300,25.353193359375,-0.00833782460540533,0.15328356623649597,0.007844074629247189
1750742399187311400,25.393311279296874,0.050164368003606796,-0.05974855273962021,-0.16796369850635529
1750742399227429400,25.433429443359376,-0.010027067735791206,-0.00129695946816355,-0.11022797226905823
1750742399267547400,25.47354736328125,-0.007386277429759502,0.1690388172864914,0.1349295824766159
1750742399307665400,25.51366552734375,-0.06199013441801071,-0.03461656719446182,-0.05115959048271179
1750742399347783700,25.55378369140625,0.1510382443666458,-0.2396317720413208,-0.19326026737689972
1750742399387901400,25.5939013671875,-0.02840873785316944,0.07636694610118866,-0.012719523161649704
1750742399428019500,25.63401953125,-0.1394606977701187,0.09328680485486984,0.06232089921832085
1750742399468137500,25.674137451171877,-0.009617207571864128,0.13782018423080444,0.04286038130521774
1750742399508255500,25.71425537109375,0.035047199577093124,-0.10765562206506729,-0.02423955872654915
1750742399548373500,25.75437353515625,0.12490704655647278,0.2259332686662674,0.029932333156466484
1750742399588491500,25.794491455078123,0.13102033734321594,0.025946645066142082,-0.018857577815651894
1750742399628609500,25.834609619140625,0.013652162626385689,-0.07015485316514969,-0.02737063728272915
1750742399668727300,25.874727294921875,-0.016329437494277954,-0.07849107682704926,0.007675762753933668
1750742399708845300,25.91484521484375,-0.02413969114422798,0.072289377450943,0.0500706247985363
1750742399748963300,25.95496337890625,0.026043584570288658,-0.001731320982798934,-0.10153168439865112
1750742399789082600,25.99508251953125,0.05544275417923927,-0.07806550711393356,-0.025431590154767036
1750742399829200400,26.035200439453124,0.06973221153020859,0.10575918853282928,0.019450662657618523
1750742399869318400,26.075318359375,0.021454159170389175,0.043117642402648926,-0.04963386431336403
1750742399909436400,26.1154365234375,-0.004985703621059656,-0.04144198074936867,-0.09732042998075485
1750742399949554400,26.155554443359375,-0.03430631011724472,0.09149502962827682,0.0011768508702516556
1750742399989672400,26.19567236328125,-0.06394356489181519,-0.06119171902537346,0.06943286955356598
1750742400029790500,26.23579052734375,0.05223897099494934,-0.1350100189447403,0.04078125208616257
1750742400069907700,26.27590771484375,0.04598213732242584,-0.059713397175073624,-0.11442165076732635
1750742400110025700,26.316025634765627,0.0043840957805514336,-0.00612180819734931,-0.045527804642915726
1750742400150143700,26.356143798828125,0.011289938353002071,0.06070009991526604,0.023664049804210663
1750742400190261500,26.396261474609375,-0.05000191554427147,-0.08936662971973419,-0.022309832274913788
1750742400230379500,26.436379638671873,0.03404904529452324,-0.05524754151701927,-0.023093868046998978
1750742400270497500,26.47649755859375,0.016041018068790436,0.1351138800382614,0.066891148686409
1750742400310615800,26.51661572265625,0.10243449360132217,-0.031378161162137985,-0.17495077848434448
1750742400350733800,26.55673388671875,-0.10413865000009537,0.11511567234992981,0.023936757817864418
1750742400390851800,26.596851806640625,-0.06455022841691971,-0.062121160328388214,0.08795089274644852
1750742400430969600,26.636969482421875,-0.031206388026475906,-0.029756831005215645,0.11556334793567657
1750742400471087600,26.677087646484374,0.02039715088903904,0.09611348062753677,-0.09824587404727936
1750742400511205600,26.71720556640625,0.021709289401769638,-0.018322015181183815,0.054183609783649445
1750742400551323600,26.75732373046875,-0.019271964207291603,0.08460276573896408,0.06560217589139938
1750742400591441700,26.797441650390624,0.01870551146566868,-0.019990751519799232,0.05747607722878456
1750742400631559700,26.8375595703125,0.08303629606962204,0.01161724142730236,0.03051050566136837
1750742400671678500,26.877678466796876,0.12563541531562805,0.07440871745347977,-0.07913343608379364
1750742400711796700,26.917796630859375,0.152892604470253,0.013103817589581013,-0.019176358357071877
1750742400751914800,26.957914794921876,0.0572797991335392,-0.02605450339615345,-0.029384519904851913
1750742400792032800,26.99803271484375,0.037687722593545914,-0.13051167130470276,-0.05296894162893295
1750742400832150800,27.03815087890625,0.018254105001688004,-0.01703703962266445,0.09012722969055176
1750742400872268800,27.078268798828127,0.02047065459191799,0.05715729668736458,-0.1327013224363327
1750742400912386600,27.118386474609373,0.03777401149272919,-0.017580324783921242,-0.1384984850883484
1750742400952504600,27.158504638671875,0.04399728402495384,0.06210118904709816,0.021253889426589012
1750742400992622600,27.19862255859375,0.011394601315259933,0.008226504549384117,-0.12161511182785034
1750742401032740600,27.23874072265625,0.0026202842127531767,-0.04998753219842911,-0.05633917078375816
1750742401072858600,27.278858642578125,0.009922938421368599,0.09053602814674377,0.022114090621471405
1750742401112976600,27.3189765625,0.006256564520299435,0.03105805069208145,-0.11102638393640518
1750742401153094700,27.3590947265625,0.0004844290087930858,-0.07286834716796875,-0.034938544034957886
1750742401193212700,27.399212646484376,-0.019816048443317413,0.05908755585551262,0.058763980865478516
1750742401233330700,27.43933056640625,-0.07053355127573013,-0.060566674917936325,-0.04435548186302185
1750742401273448700,27.47944873046875,-0.048219725489616394,-0.019595272839069366,0.05337880179286003
1750742401313566700,27.519566650390626,0.015512913465499878,0.10758824646472931,0.03218270465731621
1750742401353684700,27.559684814453124,0.030355775728821754,-0.006518353242427111,-0.14607997238636017
1750742401393802800,27.599802734375,0.029943518340587616,0.06295579671859741,0.03437581658363342
1750742401433920500,27.63992041015625,0.022403042763471603,0.12737633287906647,0.06484104692935944
1750742401474038500,27.68003857421875,-0.028497422114014626,-0.06621737033128738,-0.08844570815563202
1750742401514156500,27.720156494140625,-0.004477838985621929,-0.005346295889467001,0.04466467350721359
1750742401554275800,27.76027587890625,0.04826340451836586,0.12307825684547424,0.08197076618671417
1750742401594393900,27.800393798828125,0.06833138316869736,-0.07705111056566238,-0.11659692227840424
1750742401634511600,27.84051171875,0.06722111254930496,0.013481986708939075,-0.0433938130736351
1750742401674629600,27.880629638671873,0.040704820305109024,0.055752210319042206,0.056122925132513046
1750742401714747600,27.92074755859375,0.03193796053528786,-0.0005518069956451654,0.026520024985074997
1750742401754865700,27.96086572265625,0.021811556071043015,-0.02906227856874466,-0.016386697068810463
1750742401794983700,28.000983642578124,0.011096592992544174,-0.019532421603798866,0.012434831820428371
1750742401835101700,28.041101806640626,0.006102367304265499,0.03202717378735542,-0.02646676078438759
1750742401875219500,28.081219482421876,-0.00032410668791271746,0.031063644215464592,-0.03629941865801811
1750742401915337500,28.12133740234375,0.022247515618801117,0.018673285841941833,-0.04640691354870796
1750742401955455700,28.161455810546876,0.04957660660147667,-0.011037204414606094,-0.027755998075008392
1750742401995573800,28.20157373046875,0.04945330321788788,-0.005991313606500626,-0.00751890242099762
1750742402035691800,28.24169189453125,0.0181752759963274,0.017855163663625717,-0.01110484916716814
1750742402075810000,28.28181005859375,-0.005419266410171986,-0.01683916710317135,-0.030480677261948586
1750742402115927800,28.321927734375,0.005091963801532984,0.028429243713617325,0.01270034909248352
1750742402156046000,28.362046142578127,0.011040933430194855,0.016521718353033066,-0.0028418591246008873
1750742402196164000,28.4021640625,-0.01167689636349678,0.000464188982732594,-0.0185859352350235
1750742402236282000,28.4422822265625,-0.051363587379455566,0.00216594897210598,0.02732456475496292
1750742402276400000,28.482400146484373,-0.06430202722549438,0.053754307329654694,0.07181932777166367
1750742402316518100,28.52251806640625,-0.04532433673739433,-0.007924768142402172,0.1037016287446022
1750742402356636200,28.56263623046875,-0.0169741902500391,0.037342313677072525,0.055739693343639374
1750742402396754000,28.60275390625,0.0008000136003829539,0.017226656898856163,-0.03110945038497448
1750742402436872000,28.642871826171874,0.02840021625161171,0.00467651104554534,-0.010700847953557968
1750742402476990000,28.682989990234375,0.04496321454644203,0.11630024760961533,0.04012851044535637
1750742402517109000,28.72310888671875,0.04707296937704086,-0.028675852343440056,-0.032032500952482224
1750742402557227000,28.76322705078125,0.05277719348669052,-0.015684420242905617,-0.04211336374282837
1750742402597345000,28.803344970703126,0.050332680344581604,0.026491528376936913,-0.033072732388973236
1750742402637463000,28.843463134765624,0.018124675378203392,0.06090409681200981,-0.02196095883846283
1750742402677581000,28.8835810546875,0.004063717555254698,-0.0033475933596491814,0.00392869533970952
1750742402717699000,28.923698974609376,0.019647471606731415,-0.013193033635616302,-0.00794154591858387
1750742402757817000,28.963817138671875,0.03532443568110466,0.003774764481931925,-0.039801742881536484
1750742402797935000,29.00393505859375,0.04098737984895706,0.03503414988517761,-0.07535494118928909
1750742402838052900,29.044052978515627,0.026934411376714706,0.027597539126873016,-0.08279554545879364
1750742402878171000,29.0841708984375,0.027338946238160133,0.028894498944282532,-0.10632430762052536
1750742402918289000,29.124288818359375,-0.038415297865867615,0.028493160381913185,-0.05289437249302864
1750742402958407000,29.164406982421873,-0.04555922746658325,0.04857952147722244,-0.04854969307780266
1750742402998525200,29.204525146484375,-0.06886721402406693,0.05547497794032097,-0.04764954373240471
1750742403038643200,29.244643310546873,-0.10604733973741531,-0.01245267502963543,-0.028907015919685364
1750742403078761200,29.28476123046875,-0.16316761076450348,-0.11494283378124237,-0.0671904906630516
1750742403118879000,29.32487890625,-0.027182085439562798,0.060214072465896606,-0.3274196684360504
1750742403158997000,29.3649970703125,0.053293049335479736,0.23538188636302948,-0.46421054005622864
1750742403199115000,29.405114990234374,0.14345329999923706,0.3719698190689087,-0.6000442504882812
1750742403239233000,29.44523291015625,0.015252189710736275,0.18865859508514404,-0.38303712010383606
1750742403279351000,29.48535107421875,-0.04710439592599869,-0.08612130582332611,-0.26589637994766235
1750742403319469000,29.525468994140624,-0.05522224307060242,-0.2039579302072525,-0.0819699689745903
1750742403359587000,29.565587158203126,-0.05916744843125343,-0.07745937258005142,0.1823628842830658
1750742403399704800,29.605704833984376,0.0686565563082695,0.030842866748571396,0.3156868517398834
1750742403439823000,29.645822998046874,0.19602729380130768,-0.1350129395723343,0.17481549084186554
1750742403479941000,29.685941162109376,0.19674955308437347,-0.18353255093097687,0.169124037027359
1750742403520059100,29.72605908203125,-0.10094711929559708,-0.3993854820728302,0.5413479208946228
1750742403560178000,29.766177978515625,0.07590701431035995,-0.12603755295276642,0.7435218095779419
1750742403600296000,29.8062958984375,-0.07091891765594482,-0.20286256074905396,0.3448697626590729
1750742403640414000,29.8464140625,-0.10201212018728256,-0.4414333403110504,-0.31082817912101746
1750742403680532000,29.886531982421875,-0.11842145025730133,0.1789761483669281,0.017548101022839546
1750742403720650000,29.92664990234375,0.007198257837444544,0.6717424392700195,0.2087572067975998
1750742403760768000,29.96676806640625,0.10381028801202774,-0.47506025433540344,-0.22901907563209534
1750742403800886300,30.00688623046875,0.09904962033033371,-0.77265864610672,-0.058692608028650284
1750742403841004000,30.047004150390624,-0.03840091824531555,-0.22558066248893738,0.621947169303894
1750742403881122000,30.0871220703125,0.18427424132823944,-0.006728742737323046,0.2412048876285553
1750742403921240000,30.127239990234376,0.2077702432870865,-0.2610792815685272,-0.4441750645637512
1750742403961358000,30.167358154296874,0.08368264883756638,-0.22736763954162598,-0.08375614881515503
1750742404001476000,30.20747607421875,-0.12110405415296555,0.17056721448898315,0.0965675488114357
1750742404041594000,30.247593994140626,-0.15887567400932312,-0.021015802398324013,-0.23506124317646027
1750742404081712400,30.28771240234375,-0.1263699233531952,-0.15215571224689484,-0.2461397349834442
1750742404121830400,30.327830322265626,-0.2517901659011841,0.14383547008037567,-0.24162034690380096
1750742404161948400,30.367948486328125,-0.40156659483909607,0.07353121042251587,-0.24397431313991547
1750742404202066400,30.40806640625,-0.4698157012462616,-0.029685724526643753,-0.28023138642311096
1750742404242184400,30.448184326171877,-0.20019593834877014,-0.19386214017868042,-0.10886549949645996
1750742404282302500,30.488302490234375,0.21559220552444458,0.6202664375305176,-0.3240630328655243
1750742404322420500,30.52842041015625,-0.18148882687091827,-0.08308210223913193,-0.7675435543060303
1750742404362538200,30.568538330078123,-0.3383074700832367,-0.746427059173584,0.5990173816680908
1750742404402656300,30.60865625,-0.5477563142776489,-0.09389640390872955,0.9722524881362915
1750742404442774300,30.648774169921875,0.018325744196772575,-0.28930798172950745,0.24398337304592133
1750742404482892500,30.688892578125,-0.16509415209293365,-0.3257943391799927,0.39532390236854553
1750742404523010600,30.729010498046875,-0.23177731037139893,-0.20158638060092926,0.19520731270313263
1750742404563128600,30.769128662109374,-0.27228105068206787,0.10213196277618408,-0.05117024481296539
1750742404603246300,30.809246337890624,-0.3124532401561737,0.22686244547367096,-0.07668865472078323
1750742404643364400,30.8493642578125,-0.3226211965084076,0.24560417234897614,-0.04204545542597771
1750742404683482400,30.889482421875,-0.3926370143890381,0.17475636303424835,-0.0014064153656363487
1750742404723600400,30.929600341796874,-0.42303353548049927,0.12843839824199677,-0.004805940669029951
1750742404763718400,30.969718505859376,-0.2522892355918884,-0.0444691963493824,-0.11342748999595642
1750742404803836400,31.00983642578125,-0.1172185018658638,0.06644640117883682,0.08711599558591843
1750742404843954400,31.049954345703124,-0.12051576375961304,0.16159315407276154,0.23471397161483765
1750742404884072200,31.090072265625,-0.11760705709457397,0.04264732822775841,0.26479971408843994
1750742404924190500,31.1301904296875,-0.1500033438205719,-0.04123691841959953,0.30109086632728577
1750742404964308500,31.17030859375,-0.148537278175354,0.010551710613071918,0.27377694845199585
1750742405004427500,31.210427490234373,-0.01636485755443573,0.12557896971702576,0.1734444946050644
1750742405044545500,31.250545654296875,0.006444317288696766,0.2154870182275772,0.11827018111944199
1750742405084663000,31.2906630859375,0.022344453260302544,0.22345545887947083,-0.010701113380491734
1750742405124781000,31.330781005859375,0.06383916735649109,0.155970960855484,-0.07839600741863251
1750742405164899000,31.370899169921874,0.10669448971748352,0.11892319470643997,-0.12638244032859802
1750742405205017000,31.41101708984375,0.1632469743490219,0.05493675172328949,-0.1616557389497757
1750742405245135400,31.45113525390625,0.15941442549228668,0.1416865587234497,-0.10191997140645981
1750742405285253400,31.49125341796875,0.17184552550315857,0.2158087193965912,-0.08280087262392044
1750742405325371400,31.531371337890626,0.1050233542919159,0.1995682418346405,-0.017172595486044884
1750742405365489200,31.5714892578125,0.11220163851976395,0.19084344804286957,-0.043590620160102844
1750742405405607200,31.611607177734374,0.06515397131443024,0.06354648619890213,0.04942267760634422
1750742405445725200,31.65172509765625,0.04902400076389313,0.10150079429149628,-0.006672816351056099
1750742405485843200,31.69184326171875,0.0023784691002219915,0.08396520465612411,0.008416920900344849
1750742405525961200,31.731961181640624,0.028379710391163826,0.17403438687324524,0.02449575625360012
1750742405566079200,31.772079345703126,0.08210765570402145,0.13806545734405518,0.03105538710951805
1750742405606197000,31.812197021484376,0.2187480628490448,0.10426461696624756,-0.07621114701032639
1750742405646315000,31.85231494140625,0.24497805535793304,0.11775646358728409,-0.16081444919109344
1750742405686433300,31.892433349609377,0.2914195954799652,0.09804853796958923,-0.17935271561145782
1750742405726551300,31.93255126953125,0.28280240297317505,0.10894539207220078,-0.12433154135942459
1750742405766669300,31.97266943359375,0.28089743852615356,0.09999903291463852,-0.22943265736103058
1750742405806787300,32.01278735351563,0.22023916244506836,0.05585208162665367,-0.24717170000076294
1750742405846905300,32.0529052734375,0.21607956290245056,0.04043850302696228,-0.13927853107452393
1750742405887023000,32.09302319335937,0.23889434337615967,0.0789337009191513,-0.08008604496717453
1750742405927141000,32.13314111328125,0.23684529960155487,-0.019289275631308556,-0.12635821104049683
1750742405967259100,32.173259033203124,0.207454115152359,-0.09229797124862671,-0.06228095293045044
1750742406007377200,32.21337719726562,0.16753040254116058,-0.027477430179715157,-0.001785116852261126
1750742406047495200,32.2534951171875,0.13240331411361694,-0.09751856327056885,-0.06127161160111427
1750742406087613400,32.293613525390626,0.1489758938550949,-0.10209893435239792,-0.08252710103988647
1750742406127731200,32.33373120117187,0.15223747491836548,-0.03772527351975441,-0.1193077489733696
1750742406167849200,32.37384912109375,0.1194094866514206,-0.0215324554592371,-0.11378488689661026
1750742406207967500,32.413967529296876,0.08199766278266907,-0.026507774367928505,-0.034034401178359985
1750742406248085500,32.45408544921875,0.08064797520637512,0.005863481666892767,-0.03858707472681999
1750742406288203500,32.49420361328125,0.06575317680835724,-0.07010212540626526,-0.039570312947034836
1750742406328321500,32.534321533203126,0.043538954108953476,-0.09818115830421448,-0.0067452541552484035
1750742406368439600,32.574439453125,0.013497166335582733,-0.09717075526714325,0.03873381391167641
1750742406408557300,32.61455737304688,-0.04368036985397339,-0.06792738288640976,0.10423878580331802
1750742406448676400,32.65467626953125,-0.12794092297554016,-0.11386159062385559,0.11296463757753372
1750742406488794400,32.69479443359375,-0.16127757728099823,-0.07121266424655914,0.12079965323209763
1750742406528912400,32.734912353515625,-0.01924959383904934,0.036318060010671616,0.10095830261707306
1750742406569030400,32.775030517578124,0.10343664139509201,0.04387424886226654,-0.050765976309776306
1750742406609148400,32.8151484375,0.06866428256034851,-0.020868264138698578,-0.06573747098445892
1750742406649266400,32.855266357421876,-0.02972353994846344,0.04844929277896881,0.04406040161848068
1750742406689384400,32.895384521484374,-0.052015531808137894,0.03687146678566933,0.08063705265522003
1750742406729502500,32.93550244140625,-0.021513281390070915,0.09573052078485489,-0.03262345492839813
1750742406769620500,32.975620361328126,0.013511281460523605,0.1161646917462349,-0.05530187115073204
1750742406809738500,33.015738525390624,-0.0005837649223394692,0.16534261405467987,-0.006367351859807968
1750742406849856300,33.05585620117188,0.010742658749222755,0.1263592690229416,0.02309812791645527
1750742406889974300,33.095974365234376,-0.0015733955660834908,0.08468905836343765,0.012544287368655205
1750742406930092300,33.13609228515625,0.028083300217986107,0.10498979687690735,0.028195152059197426
1750742406970210300,33.17621020507813,0.0716097354888916,0.1264844387769699,0.040720000863075256
1750742407010328300,33.216328369140626,0.08773890882730484,0.15179219841957092,0.013578127138316631
1750742407050446600,33.256446533203125,0.11867125332355499,0.09810099750757217,0.004319913685321808
1750742407090564000,33.29656420898438,0.14872236549854279,0.17903153598308563,-0.03524453938007355
1750742407130682000,33.33668212890625,0.15869936347007751,0.1844971477985382,-0.04643381014466286
1750742407170799900,33.3767998046875,0.19681772589683533,0.1728769689798355,-0.04535390064120293
1750742407210918000,33.41691796875,0.24965298175811768,0.16905906796455383,-0.060029249638319016
1750742407251036000,33.457035888671875,0.28027135133743286,0.12154746800661087,-0.13142406940460205
1750742407291154200,33.497154296875,0.3321574330329895,0.11754846572875977,-0.19902707636356354
1750742407331272200,33.53727221679687,0.31155896186828613,0.10064618289470673,-0.17389562726020813
1750742407371390200,33.57739013671875,0.24128159880638123,0.10042274743318558,-0.06137334555387497
1750742407411508000,33.617508056640624,0.16035372018814087,0.17579606175422668,-0.17592228949069977
1750742407451626000,33.6576259765625,0.11888884007930756,0.23472142219543457,-0.3593107759952545
1750742407491744000,33.697743896484376,0.08599746227264404,0.6039993166923523,-0.32361215353012085
1750742407531862000,33.737862060546874,0.1786738783121109,0.6231570243835449,-0.5079857110977173
1750742407571980000,33.77797998046875,0.29209232330322266,0.4478670060634613,-0.6726151704788208
1750742407612098000,33.81809814453125,0.34411129355430603,0.3278566896915436,-0.635164737701416
1750742407652217000,33.85821704101563,0.23846876621246338,0.2823294401168823,-0.3830488622188568
1750742407692335000,33.898335205078126,0.19417187571525574,0.353900283575058,-0.14920492470264435
1750742407732453000,33.938453125,0.20440587401390076,0.2555995583534241,-0.06604346632957458
1750742407772571100,33.97857104492188,0.32072848081588745,0.0825292319059372,-0.19355827569961548
1750742407812689200,34.01868920898438,0.43808600306510925,0.049732401967048645,-0.32079532742500305
1750742407852807200,34.05880712890625,0.5953355431556702,0.17056481540203094,-0.21456342935562134
1750742407892925000,34.09892504882812,0.5616534948348999,0.26431339979171753,-0.14777640998363495
1750742407933043000,34.13904296875,0.6272782683372498,0.2841443717479706,-0.06610152125358582
1750742407973161000,34.17916088867187,0.5403889417648315,-0.03699876368045807,-0.02395406924188137
1750742408013279000,34.21927905273437,0.4961056411266327,-0.5913280248641968,0.14074167609214783
1750742408053397000,34.25939697265625,0.5240320563316345,0.027480093762278557,0.4967080354690552
1750742408093515000,34.299514892578124,0.6320003271102905,0.20579470694065094,0.022472817450761795
1750742408133633000,34.33963305664062,0.6470216512680054,-0.07664550840854645,-0.30536577105522156
1750742408173751000,34.3797509765625,0.36554068326950073,-0.090080626308918,-0.19111323356628418
1750742408213869000,34.419869140625,0.20190569758415222,0.06951196491718292,0.031024228781461716
1750742408253987000,34.45998706054687,0.08478439599275589,0.16980953514575958,0.07084807753562927
1750742408294105000,34.50010498046875,0.09503170847892761,0.09733986854553223,-0.07053036242723465
1750742408334223000,34.54022314453125,0.08082640916109085,0.2045174539089203,-0.04273654520511627
1750742408374341000,34.58034106445312,0.06702990084886551,0.47596386075019836,-0.02858424000442028
1750742408414459000,34.620458984375,0.10802580416202545,0.4381677508354187,-0.28777292370796204
1750742408454577000,34.660576904296875,0.16083122789859772,0.2137431800365448,-0.3501814603805542
1750742408494695000,34.70069482421875,0.18798455595970154,0.2373422533273697,-0.03361788019537926
1750742408534813000,34.74081298828125,0.08239660412073135,0.21401242911815643,0.02058410458266735
1750742408574931200,34.78093115234375,0.05191619321703911,0.16045917570590973,-0.04428011178970337
1750742408615049200,34.82104931640625,0.08288316428661346,0.09356404095888138,0.007722367998212576
1750742408655167000,34.8611669921875,0.07735710591077805,0.07121212780475616,-0.030496656894683838
1750742408695285000,34.901284912109375,0.06270865350961685,0.13218359649181366,-0.11472444981336594
1750742408735403000,34.94140307617187,0.03345569595694542,0.28137922286987305,-0.12625859677791595
1750742408775521000,34.98152099609375,-0.010357832536101341,0.33060213923454285,-0.16586832702159882
1750742408815639000,35.02163916015625,0.04596882313489914,0.5102139711380005,-0.135015606880188
1750742408855757000,35.061757080078124,0.11026392132043839,0.8374685645103455,-0.15976569056510925
1750742408895875000,35.101875,0.134247288107872,0.45647671818733215,-0.29138365387916565
1750742408935992800,35.141992919921876,0.2341962605714798,0.2968396544456482,-0.09514622390270233
1750742408976110800,35.18211083984375,0.3042970299720764,0.34051522612571716,0.03512043505907059
1750742409016229000,35.22222900390625,0.3688821494579315,0.19728350639343262,-0.03436942398548126
1750742409056347100,35.26234716796875,0.4353213608264923,0.07563617080450058,0.08106768876314163
1750742409096464600,35.30246459960937,0.48490917682647705,0.24748782813549042,0.06713882088661194
1750742409136582700,35.34258276367188,0.5878179669380188,0.27402862906455994,-0.09116506576538086
1750742409176701400,35.38270141601563,0.6065865755081177,0.29212212562561035,-0.23916678130626678
1750742409216819700,35.42281982421875,0.6254417896270752,0.3051484525203705,-0.3355036973953247
1750742409256937700,35.462937744140625,0.5584241151809692,0.4545656442642212,-0.30469226837158203
1750742409297055700,35.5030556640625,0.546407163143158,0.2950654625892639,-0.4367493689060211
1750742409337173800,35.543173828125,0.5031155943870544,0.2298039048910141,-0.48516881465911865
1750742409377291800,35.583291748046875,0.43516212701797485,0.23759497702121735,-0.36218592524528503
1750742409417409500,35.62340942382812,0.37665966153144836,0.2905609905719757,-0.34527111053466797
1750742409457527600,35.66352758789063,0.3473198711872101,0.1516347974538803,-0.29277995228767395
1750742409497645600,35.7036455078125,0.28889891505241394,0.09339199960231781,-0.2733686864376068
1750742409537763600,35.743763671875,0.29050958156585693,0.16327254474163055,-0.2819153070449829
1750742409577881600,35.78388159179688,0.2842298746109009,0.20357389748096466,-0.1998651772737503
1750742409617999600,35.82399951171875,0.32085099816322327,0.1580950915813446,-0.20001564919948578
1750742409658118000,35.864117919921874,0.3342680037021637,0.06765920668840408,-0.3575853109359741
1750742409698235600,35.90423559570313,0.27139049768447876,0.10720368474721909,-0.4069459140300751
1750742409738353700,35.944353759765626,0.23477709293365479,0.22701503336429596,-0.38377615809440613
1750742409778471700,35.9844716796875,0.163873091340065,0.2935836911201477,-0.26695525646209717
1750742409818589700,36.02458959960938,0.10879945009946823,0.23066863417625427,-0.19857141375541687
1750742409858707700,36.064707763671876,0.11386185139417648,0.21835151314735413,-0.12378266453742981
1750742409898825700,36.10482568359375,0.12044358998537064,0.25671568512916565,-0.18274638056755066
1750742409938943700,36.14494384765625,0.04487825930118561,0.11647041887044907,-0.0892353355884552
1750742409979061500,36.1850615234375,0.07990016043186188,-0.009111739695072174,-0.00045300371129997075
1750742410019179500,36.22517944335937,0.14070731401443481,0.11375825852155685,0.015195464715361595
1750742410059297500,36.26529760742188,0.2646436393260956,0.1717856079339981,-0.07287739962339401
1750742410099416600,36.30541650390625,0.24696797132492065,0.048957422375679016,-0.09910501539707184
1750742410139534600,36.34553466796875,0.3092052638530731,0.10364889353513718,-0.08646032214164734
1750742410179652400,36.38565234375,0.28954553604125977,0.11566907167434692,-0.017409617081284523
1750742410219770400,36.42577026367187,0.24057959020137787,-0.04783596470952034,-0.06105749309062958
1750742410259888600,36.465888671875,0.23866690695285797,-0.06515130400657654,0.026079537346959114
1750742410300006700,36.506006591796876,0.2777940630912781,0.15310779213905334,-0.009458216838538647
1750742410340124700,36.546124755859374,0.22643660008907318,0.1089877337217331,-0.13135217130184174
1750742410380242700,36.58624267578125,0.18384812772274017,0.054193198680877686,-0.15477493405342102
1750742410420360400,36.6263603515625,0.17225831747055054,0.09779606759548187,-0.09580029547214508
1750742410460478500,36.666478515625,0.05248664319515228,0.08474525064229965,-0.16854533553123474
1750742410500596500,36.70659643554688,0.0733591690659523,0.18185395002365112,-0.1193476989865303
1750742410540714500,36.746714599609376,0.10770808905363083,0.24470429122447968,-0.1370965987443924
1750742410580832500,36.78683251953125,0.07772835344076157,0.17238321900367737,-0.189053013920784
1750742410620950500,36.82695043945313,0.29630568623542786,0.49116411805152893,-0.3391279876232147
1750742410661068500,36.86706860351563,0.10086455941200256,0.2610366642475128,-0.3818991482257843
1750742410701186300,36.90718627929687,0.0443996898829937,0.027333885431289673,-0.33714818954467773
1750742410741304600,36.9473046875,0.12422767281532288,0.03164607658982277,0.3084566295146942
1750742410781422600,36.98742260742188,0.12999847531318665,-0.005871471017599106,0.05072975531220436
1750742410821540600,37.02754052734375,0.4609071612358093,-0.017437046393752098,-0.3146234452724457
1750742410861658600,37.06765869140625,0.12741655111312866,-0.0171480942517519,-0.0049063414335250854
1750742410901776600,37.10777661132813,0.3843948245048523,0.04778243601322174,-0.12112482637166977
1750742410941894700,37.147894775390625,0.21738611161708832,0.16743293404579163,0.12250594049692154
1750742410982012400,37.18801245117187,0.3270159363746643,-0.11878737062215805,-0.45659151673316956
1750742411022130400,37.22813037109375,0.14993436634540558,-0.0254619512706995,-0.141402930021286
1750742411062248200,37.268248291015624,0.1393032968044281,0.07135646790266037,-0.15669214725494385
1750742411102366200,37.3083662109375,0.1901875138282776,0.05681001767516136,-0.2370261251926422
1750742411142484200,37.348484130859376,0.16030871868133545,-0.10283583402633667,-0.29843783378601074
1750742411182602200,37.388602294921874,0.10912435501813889,0.014878282323479652,-0.07851105183362961
1750742411222720300,37.42872021484375,0.0508517287671566,0.06423784047365189,-0.11196568608283997
1750742411262838000,37.468838134765626,0.012591158971190453,-0.1901680827140808,-0.21846096217632294
1750742411302956000,37.5089560546875,0.041728273034095764,-0.0647350549697876,0.04156901314854622
1750742411343074000,37.54907397460938,-0.0710374265909195,-0.033185116946697235,0.17277869582176208
1750742411383192000,37.589192138671876,-0.13785453140735626,-0.05710403248667717,0.04747510701417923
1750742411423310300,37.629310302734375,-0.13096679747104645,0.0022660838440060616,0.12856410443782806
1750742411463428400,37.66942846679687,-0.06867413222789764,-0.03639262914657593,-0.05173430219292641
1750742411503546000,37.70954614257813,0.1805942803621292,0.006149238906800747,-0.22286450862884521
1750742411543664000,37.7496640625,0.24303396046161652,0.06844829767942429,-0.09082018584012985
1750742411583782100,37.7897822265625,0.11591009050607681,-0.06277336925268173,-0.2812580466270447
1750742411623900200,37.82990014648438,0.03576039522886276,-0.12208782881498337,-0.17610739171504974
1750742411664018200,37.87001806640625,-0.02587713673710823,0.11993226408958435,0.051833104342222214
1750742411704136200,37.91013623046875,0.002941727638244629,-0.09783095866441727,-0.1933622658252716
