time,seconds_elapsed,z,y,x
1781099236650826800,0.09082666015625,-0.9229888916015625,-0.296417236328125,-0.020233154296875
1781099236675901700,0.115901611328125,-0.9311370849609375,-0.2888031005859375,-0.025146484375
1781099236700976600,0.1409765625,-0.954925537109375,-0.285675048828125,-0.0234832763671875
1781099236726051600,0.166051513671875,-0.942657470703125,-0.2920074462890625,-0.0225067138671875
1781099236751126500,0.19112646484375,-0.9333038330078125,-0.292999267578125,-0.02740478515625
1781099236776201500,0.216201416015625,-0.93719482421875,-0.29241943359375,-0.018157958984375
1781099236801276700,0.241276611328125,-0.9713897705078125,-0.2887115478515625,-0.0140533447265625
1781099236826351600,0.2663515625,-0.974029541015625,-0.2878265380859375,-0.022979736328125
1781099236851426600,0.291426513671875,-0.9594268798828125,-0.29693603515625,-0.02813720703125
1781099236876501500,0.31650146484375,-0.9414520263671875,-0.2994537353515625,-0.0274658203125
1781099236901576400,0.341576416015625,-0.95037841796875,-0.3007659912109375,-0.0161285400390625
1781099236926651400,0.3666513671875,-0.9569549560546875,-0.306060791015625,-0.025177001953125
1781099236951726000,0.39172607421875,-0.963958740234375,-0.3024749755859375,-0.0189208984375
1781099236976801000,0.416801025390625,-0.9640960693359375,-0.2985687255859375,-0.0190277099609375
1781099237001876000,0.4418759765625,-0.95513916015625,-0.3023834228515625,-0.017364501953125
1781099237026951000,0.466950927734375,-0.9589691162109375,-0.3007049560546875,-0.023223876953125
1781099237052025900,0.49202587890625,-0.9737701416015625,-0.2979736328125,-0.02435302734375
1781099237077101000,0.51710107421875,-0.9601898193359375,-0.3009033203125,-0.0234527587890625
1781099237102176000,0.542176025390625,-0.9405059814453125,-0.302642822265625,-0.0142364501953125
1781099237127251000,0.5672509765625,-0.955535888671875,-0.29730224609375,-0.0114593505859375
1781099237152326000,0.592325927734375,-0.956146240234375,-0.30120849609375,-0.0205535888671875
1781099237177400800,0.61740087890625,-0.93939208984375,-0.2999267578125,-0.0127105712890625
1781099237202475800,0.642475830078125,-0.949249267578125,-0.2989349365234375,-0.01318359375
1781099237227551000,0.667551025390625,-0.9624786376953125,-0.2922821044921875,-0.007415771484375
1781099237252626000,0.6926259765625,-0.9526214599609375,-0.3023529052734375,-0.010498046875
1781099237277700900,0.717700927734375,-0.936920166015625,-0.2993621826171875,0.0032958984375
1781099237302775800,0.74277587890625,-0.93621826171875,-0.300262451171875,-0.026031494140625
1781099237327851800,0.767851806640625,-0.943634033203125,-0.2961578369140625,-0.0460662841796875
1781099237352927000,0.792927001953125,-0.966094970703125,-0.291351318359375,-0.031036376953125
1781099237378002000,0.818001953125,-0.9627685546875,-0.2858428955078125,-0.029815673828125
1781099237403076900,0.843076904296875,-0.937103271484375,-0.2894287109375,-0.0112457275390625
1781099237428151800,0.86815185546875,-0.936492919921875,-0.2923431396484375,-0.010162353515625
1781099237453226800,0.893226806640625,-0.95111083984375,-0.2942657470703125,-0.013824462890625
1781099237478301700,0.9183017578125,-0.9840087890625,-0.283416748046875,-0.017059326171875
1781099237503378000,0.9433779296875,-0.958770751953125,-0.2889404296875,-0.0250396728515625
1781099237528452900,0.968452880859375,-0.9471893310546875,-0.3006439208984375,-0.02197265625
1781099237553527800,0.99352783203125,-0.9534912109375,-0.2921600341796875,-0.0279541015625
1781099237578602800,1.018602783203125,-0.944793701171875,-0.2959442138671875,-0.02972412109375
1781099237603678000,1.043677978515625,-0.9603118896484375,-0.287933349609375,-0.0058746337890625
1781099237628753000,1.0687529296875,-0.9950103759765625,-0.28448486328125,-0.0100555419921875
1781099237653828900,1.093828857421875,-1.011688232421875,-0.2826995849609375,-0.007354736328125
1781099237678903800,1.11890380859375,-0.9641876220703125,-0.289031982421875,-0.004669189453125
1781099237703978800,1.143978759765625,-0.9397125244140625,-0.3003997802734375,-0.0059051513671875
1781099237729054000,1.169053955078125,-0.89447021484375,-0.303253173828125,-0.0028839111328125
1781099237754130000,1.1941298828125,-0.9178314208984375,-0.3018951416015625,-0.000274658203125
1781099237779204900,1.219204833984375,-0.966827392578125,-0.2948150634765625,-0.0135650634765625
1781099237804279800,1.24427978515625,-0.9522857666015625,-0.2863311767578125,-0.0070037841796875
1781099237829354800,1.269354736328125,-0.957611083984375,-0.2826385498046875,-0.007476806640625
1781099237854431000,1.294430908203125,-0.9489898681640625,-0.284515380859375,-0.0105438232421875
1781099237879506000,1.319505859375,-0.9272613525390625,-0.293182373046875,-0.0151214599609375
1781099237904580900,1.344580810546875,-0.953094482421875,-0.293243408203125,-0.006622314453125
1781099237929655800,1.36965576171875,-0.9833526611328125,-0.2778778076171875,-0.0070648193359375
1781099237954732300,1.394732177734375,-0.9665374755859375,-0.2795867919921875,0.0005035400390625
1781099237979807200,1.41980712890625,-0.958099365234375,-0.2869873046875,-0.005828857421875
1781099238004882200,1.444882080078125,-0.96197509765625,-0.2491302490234375,-0.0239410400390625
1781099238029957400,1.469957275390625,-0.9586639404296875,-0.273284912109375,-0.011962890625
1781099238055033000,1.495033203125,-0.9549407958984375,-0.2649993896484375,-0.0189208984375
1781099238080108300,1.5201083984375,-0.96026611328125,-0.2669830322265625,-0.0190582275390625
1781099238105183200,1.545183349609375,-0.97357177734375,-0.2562103271484375,-0.00225830078125
1781099238130259200,1.57025927734375,-0.9509429931640625,-0.256988525390625,-0.0049285888671875
1781099238155334100,1.595334228515625,-0.9508514404296875,-0.26605224609375,-0.0064544677734375
1781099238180409000,1.6204091796875,-0.94580078125,-0.2584075927734375,-0.0091400146484375
1781099238205485000,1.645485107421875,-0.951385498046875,-0.26226806640625,-0.0039825439453125
1781099238230560300,1.670560302734375,-0.9889373779296875,-0.251495361328125,0.0034942626953125
1781099238255635200,1.69563525390625,-0.9483184814453125,-0.2651214599609375,-0.0094146728515625
1781099238280711200,1.720711181640625,-0.948516845703125,-0.259735107421875,-0.0045928955078125
1781099238305786000,1.7457861328125,-0.9409332275390625,-0.2591705322265625,-0.01763916015625
1781099238330861000,1.770861083984375,-0.951416015625,-0.2581634521484375,-0.0198211669921875
1781099238355937300,1.795937255859375,-0.9621734619140625,-0.2491302490234375,-0.0057830810546875
1781099238381012200,1.82101220703125,-0.951141357421875,-0.24920654296875,-0.0133514404296875
1781099238406087200,1.846087158203125,-0.9217071533203125,-0.259979248046875,-0.029571533203125
1781099238431163400,1.871163330078125,-0.8869171142578125,-0.2553863525390625,-0.0199737548828125
1781099238456238300,1.89623828125,-0.995880126953125,-0.2373504638671875,-0.02069091796875
1781099238481314300,1.921314208984375,-1.074310302734375,-0.2382965087890625,-0.0372314453125
1781099238506389200,1.94638916015625,-1.0036468505859375,-0.2621307373046875,-0.0407562255859375
1781099238531464200,1.971464111328125,-0.97186279296875,-0.240234375,-0.0099029541015625
1781099238556540200,1.9965400390625,-0.97308349609375,-0.20654296875,-0.007049560546875
1781099238581615000,2.021614990234375,-0.9597625732421875,-0.235992431640625,-0.034576416015625
1781099238606690000,2.04668994140625,-0.9700469970703125,-0.2238616943359375,-0.0228424072265625
1781099238631766300,2.071766357421875,-0.9598846435546875,-0.2442169189453125,-0.0311126708984375
1781099238656841200,2.09684130859375,-1.0247344970703125,-0.1905670166015625,0.0170440673828125
1781099238681916200,2.121916259765625,-1.001007080078125,-0.17022705078125,0.049285888671875
1781099238706992000,2.1469921875,-0.91436767578125,-0.1997222900390625,0.03076171875
1781099238732067000,2.172067138671875,-0.9742584228515625,-0.2200927734375,-0.037841796875
1781099238757143300,2.197143310546875,-0.9590301513671875,-0.240936279296875,-0.049835205078125
1781099238782218200,2.22221826171875,-0.9515228271484375,-0.2262725830078125,-0.00372314453125
1781099238807293200,2.247293212890625,-0.9737701416015625,-0.204376220703125,0.01141357421875
1781099238832369400,2.272369384765625,-0.98126220703125,-0.2039337158203125,0.0079193115234375
1781099238857444400,2.2974443359375,-0.971343994140625,-0.2054901123046875,-0.0002288818359375
1781099238882519300,2.322519287109375,-0.95074462890625,-0.21575927734375,-0.0074462890625
1781099238907595300,2.34759521484375,-0.9644622802734375,-0.2322540283203125,-0.02337646484375
1781099238932670200,2.372670166015625,-0.9881744384765625,-0.22161865234375,-0.02801513671875
1781099238957745700,2.39774560546875,-0.9769439697265625,-0.2126312255859375,-0.019500732421875
1781099238982822000,2.42282177734375,-0.966888427734375,-0.2135009765625,-0.0192413330078125
1781099239007896800,2.447896728515625,-0.9789276123046875,-0.2194061279296875,-0.0208892822265625
1781099239032971800,2.4729716796875,-0.9741363525390625,-0.2342987060546875,-0.03643798828125
1781099239058047700,2.4980478515625,-0.942626953125,-0.2512664794921875,-0.0516510009765625
1781099239083122700,2.523122802734375,-0.965545654296875,-0.2538604736328125,-0.0635986328125
1781099239108198000,2.548197998046875,-0.9725799560546875,-0.244903564453125,-0.0621490478515625
1781099239133273900,2.57327392578125,-0.971954345703125,-0.2346343994140625,-0.0523681640625
1781099239158348800,2.598348876953125,-0.978851318359375,-0.236358642578125,-0.044525146484375
1781099239183423700,2.623423828125,-0.9463043212890625,-0.2543792724609375,-0.053131103515625
1781099239208500000,2.6485,-0.9543609619140625,-0.250274658203125,-0.046661376953125
1781099239233575000,2.673574951171875,-0.993255615234375,-0.229522705078125,-0.0372314453125
1781099239258649900,2.69864990234375,-0.9817047119140625,-0.2220458984375,-0.033233642578125
1781099239283725800,2.723725830078125,-0.9615020751953125,-0.230010986328125,-0.052581787109375
1781099239308801000,2.748801025390625,-0.97216796875,-0.233612060546875,-0.063934326171875
1781099239333876000,2.7738759765625,-0.9528350830078125,-0.2521820068359375,-0.0657196044921875
1781099239358951700,2.79895166015625,-0.9237518310546875,-0.274932861328125,-0.0698699951171875
1781099239384027000,2.82402685546875,-0.9425811767578125,-0.266387939453125,-0.0637664794921875
1781099239409101800,2.849101806640625,-0.9433746337890625,-0.2510528564453125,-0.0501556396484375
1781099239434177800,2.874177734375,-0.959747314453125,-0.2801666259765625,-0.128662109375
1781099239459252700,2.899252685546875,-1.157196044921875,-0.236053466796875,-0.1874237060546875
1781099239484327700,2.92432763671875,-1.047637939453125,-0.2732086181640625,-0.1274566650390625
1781099239509404000,2.94940380859375,-0.9964141845703125,-0.27752685546875,-0.066802978515625
1781099239534478800,2.974478759765625,-0.9912109375,-0.28533935546875,-0.0740814208984375
1781099239559553800,2.9995537109375,-1.061004638671875,-0.2777862548828125,-0.100128173828125
1781099239584629800,3.024629638671875,-0.9701385498046875,-0.2783203125,-0.103485107421875
1781099239609704700,3.04970458984375,-0.9809112548828125,-0.2594146728515625,-0.06201171875
1781099239634780000,3.07477978515625,-0.9840850830078125,-0.300567626953125,-0.0023040771484375
1781099239659856000,3.09985595703125,-0.957855224609375,-0.2000885009765625,0.0624542236328125
1781099239684930800,3.124930908203125,-0.94219970703125,-0.2252197265625,0.025970458984375
1781099239710005800,3.150005859375,-0.9797515869140625,-0.207000732421875,0.0490875244140625
1781099239735082000,3.17508203125,-0.94818115234375,-0.22308349609375,-0.0313720703125
1781099239760157000,3.200156982421875,-0.893829345703125,-0.23956298828125,-0.063751220703125
1781099239785232000,3.22523193359375,-0.90924072265625,-0.258148193359375,-0.03717041015625
1781099239810306800,3.250306884765625,-0.929412841796875,-0.2891845703125,-0.0565948486328125
1781099239835383000,3.275383056640625,-0.8955230712890625,-0.2691497802734375,-0.0403289794921875
1781099239860458000,3.3004580078125,-0.8927764892578125,-0.2712249755859375,-0.056640625
1781099239885533000,3.325532958984375,-0.9055938720703125,-0.2685089111328125,-0.0434722900390625
1781099239910609000,3.35060888671875,-0.887359619140625,-0.2456817626953125,-0.0223541259765625
1781099239936311800,3.376311767578125,-0.915679931640625,-0.2477264404296875,-0.05096435546875
1781099239961387800,3.4013876953125,-0.9573974609375,-0.24029541015625,-0.10577392578125
1781099239986462700,3.426462646484375,-0.9808502197265625,-0.2489471435546875,-0.126800537109375
1781099240011537700,3.45153759765625,-0.9626617431640625,-0.2353668212890625,-0.10784912109375
1781099240036612900,3.47661279296875,-0.940185546875,-0.25994873046875,-0.1305694580078125
1781099240061688800,3.501688720703125,-0.953338623046875,-0.283447265625,-0.1567230224609375
1781099240086763800,3.526763671875,-0.98236083984375,-0.2992401123046875,-0.16058349609375
1781099240111838700,3.551838623046875,-0.9368743896484375,-0.3140106201171875,-0.12969970703125
1781099240136915000,3.5769150390625,-0.918792724609375,-0.3038482666015625,-0.07672119140625
1781099240161990000,3.601989990234375,-0.9275970458984375,-0.28985595703125,-0.062957763671875
1781099240187064800,3.62706494140625,-0.98431396484375,-0.264404296875,-0.0507659912109375
1781099240212140800,3.652140869140625,-1.098480224609375,-0.2498626708984375,-0.080108642578125
1781099240237215700,3.6772158203125,-1.050537109375,-0.2570648193359375,0.0108642578125
1781099240262291000,3.702291015625,-1.0436248779296875,-0.2930755615234375,-0.06744384765625
1781099240287366000,3.727365966796875,-1.043426513671875,-0.3120574951171875,-0.0887603759765625
1781099240311189000,3.75118896484375,-0.9763336181640625,-0.2897186279296875,-0.0031890869140625
1781099240351308800,3.791308837890625,-1.0639190673828125,-0.3062591552734375,0.0430145263671875
1781099240391430000,3.831429931640625,-0.8511810302734375,-0.3824005126953125,0.011199951171875
1781099240431549700,3.8715498046875,-0.7965850830078125,-0.5291290283203125,-0.3197174072265625
1781099240471670800,3.9116708984375,-0.8183135986328125,-0.3272857666015625,-0.095703125
1781099240511791000,3.951791015625,-0.69573974609375,-0.33367919921875,0.1232452392578125
1781099240551912000,3.991911865234375,-0.933441162109375,-0.422088623046875,0.1347198486328125
1781099240592032000,4.032031982421875,-0.9495086669921875,-0.33087158203125,-0.2242584228515625
1781099240632152800,4.07215283203125,-0.9011077880859375,-0.1554412841796875,-0.0070953369140625
1781099240672273000,4.11227294921875,-0.7491302490234375,-0.370391845703125,-0.3139801025390625
1781099240712392700,4.152392822265625,-1.0408782958984375,-0.3733367919921875,-0.4833831787109375
1781099240752513800,4.192513671875,-0.7331085205078125,-0.327484130859375,-0.0169525146484375
1781099240792633900,4.2326337890625,-0.7270965576171875,-0.32135009765625,-0.1485443115234375
1781099240832755000,4.2727548828125,-0.7567901611328125,-0.243377685546875,-0.3012847900390625
1781099240872875000,4.312875,-0.63043212890625,-0.0579986572265625,-0.355224609375
1781099240912995800,4.352995849609375,-0.4445953369140625,-0.204193115234375,-0.410919189453125
1781099240953115100,4.393115234375,-0.7626800537109375,-0.320648193359375,-0.6984710693359375
1781099240993236200,4.433236328125,-0.6552886962890625,-0.3821868896484375,-1.384918212890625
1781099241033356500,4.4733564453125,-0.54736328125,-0.614105224609375,-0.825592041015625
1781099241078492400,4.518492431640625,-0.929229736328125,-0.5483856201171875,-0.705047607421875
1781099241103567400,4.5435673828125,-0.7711029052734375,-0.2719879150390625,-1.1949615478515625
1781099241128642300,4.568642333984375,-0.5078887939453125,-0.3443145751953125,-1.063201904296875
1781099241153718300,4.59371826171875,-0.5099334716796875,-0.0977783203125,-0.9386138916015625
1781099241178793500,4.61879345703125,-0.3521728515625,0.1082611083984375,-0.84869384765625
1781099241203868400,4.643868408203125,-0.2884368896484375,0.095123291015625,-0.632476806640625
1781099241228944400,4.6689443359375,-0.190216064453125,0.28607177734375,-0.5282745361328125
1781099241254019300,4.694019287109375,0.196807861328125,0.368194580078125,-0.464874267578125
1781099241279094300,4.71909423828125,0.996826171875,0.319427490234375,-0.7719268798828125
1781099241304170500,4.74417041015625,2.6964569091796875,-0.0488128662109375,-1.991119384765625
1781099241329245400,4.769245361328125,0.476654052734375,0.230194091796875,-1.1616058349609375
1781099241354320400,4.7943203125,0.714569091796875,0.0045928955078125,-0.946075439453125
1781099241379396400,4.819396240234375,0.2209625244140625,0.057098388671875,-0.6717681884765625
1781099241404471300,4.84447119140625,-0.144134521484375,0.2582855224609375,-0.6757965087890625
1781099241429546200,4.869546142578125,0.723052978515625,0.207977294921875,-1.0620574951171875
1781099241454622200,4.894622314453125,0.7739410400390625,-0.4433441162109375,-0.9918365478515625
1781099241479697200,4.919697265625,0.437286376953125,0.2272796630859375,-0.8916473388671875
1781099241504772400,4.9447724609375,-0.1936798095703125,0.2329254150390625,-0.7508392333984375
1781099241529848300,4.969848388671875,0.3739166259765625,0.9390106201171875,-0.9676361083984375
1781099241554923300,4.99492333984375,0.9967498779296875,2.1862335205078125,-0.3101959228515625
1781099241579999500,5.01999951171875,0.4358673095703125,0.697052001953125,-0.3084259033203125
1781099241605074400,5.045074462890625,0.555694580078125,0.32708740234375,-0.7075347900390625
1781099241630149400,5.0701494140625,0.6609039306640625,0.3673248291015625,-0.5656585693359375
1781099241655225300,5.095225341796875,0.670684814453125,0.60595703125,-0.5449371337890625
1781099241680300300,5.12030029296875,0.615020751953125,0.7015533447265625,-0.42626953125
1781099241705376500,5.14537646484375,0.621490478515625,0.4012908935546875,-0.6596221923828125
1781099241730451500,5.170451416015625,0.590911865234375,0.5492401123046875,-0.4367828369140625
1781099241755526400,5.1955263671875,0.6717987060546875,0.429779052734375,-0.4778289794921875
1781099241780602000,5.22060205078125,0.6075286865234375,0.1248321533203125,-0.359222412109375
1781099241805677300,5.24567724609375,0.786224365234375,-0.0229034423828125,-0.475799560546875
1781099241830753300,5.270753173828125,0.7426605224609375,0.141693115234375,-0.2096099853515625
1781099241855828200,5.295828125,0.7799224853515625,0.451995849609375,-0.09893798828125
1781099241880903200,5.320903076171875,0.7119140625,0.2307891845703125,-0.044586181640625
1781099241905979400,5.3459794921875,0.5754547119140625,0.0790863037109375,-0.1495361328125
1781099241931054300,5.371054443359375,0.5745697021484375,0.35595703125,-0.1172943115234375
1781099241956129800,5.3961298828125,0.5153656005859375,1.1632537841796875,-0.3111572265625
1781099241981204700,5.421204833984375,0.1796722412109375,2.986480712890625,-0.9507598876953125
1781099242006280000,5.446280029296875,0.5676422119140625,1.3198089599609375,0.5527496337890625
1781099242031356000,5.47135595703125,0.8488006591796875,0.8083038330078125,0.27386474609375
1781099242056430800,5.496430908203125,0.8738250732421875,0.506805419921875,0.1494140625
1781099242081506800,5.5215068359375,0.9073944091796875,0.36962890625,-0.0755615234375
1781099242106582000,5.54658203125,0.7679290771484375,0.321075439453125,-0.361114501953125
1781099242131657700,5.57165771484375,0.7022705078125,0.6830902099609375,-0.004180908203125
1781099242156732700,5.596732666015625,0.740081787109375,0.6613311767578125,-0.1233062744140625
1781099242181807900,5.621807861328125,0.82080078125,0.590362548828125,-0.1201171875
1781099242206883800,5.6468837890625,0.88592529296875,0.619140625,-0.2205963134765625
1781099242231958800,5.671958740234375,0.7823028564453125,0.6559295654296875,-0.179931640625
1781099242257034800,5.69703466796875,0.74468994140625,0.6328887939453125,-0.1135101318359375
1781099242282109700,5.722109619140625,0.790496826171875,0.6286468505859375,-0.1108551025390625
1781099242307185000,5.747184814453125,0.8077239990234375,0.605499267578125,-0.1148834228515625
1781099242332260900,5.7722607421875,0.7664642333984375,0.579315185546875,-0.1372222900390625
1781099242357335800,5.797335693359375,0.74072265625,0.560455322265625,-0.1716461181640625
1781099242382411800,5.822411865234375,0.7607421875,0.527679443359375,-0.1183624267578125
1781099242407487000,5.847487060546875,0.80230712890625,0.565521240234375,-0.084564208984375
1781099242432563000,5.87256298828125,0.8086700439453125,0.607696533203125,-0.0811004638671875
1781099242457638000,5.897637939453125,0.7783050537109375,0.618560791015625,-0.12127685546875
1781099242482712800,5.922712890625,0.75970458984375,0.6240997314453125,-0.1271514892578125
1781099242507788800,5.947788818359375,0.7748870849609375,0.6478729248046875,-0.0539398193359375
1781099242532863700,5.97286376953125,0.8157958984375,0.644989013671875,-0.086883544921875
1781099242557939700,5.997939697265625,0.8179779052734375,0.64697265625,-0.11822509765625
1781099242583014700,6.0230146484375,0.765289306640625,0.6403045654296875,-0.1264801025390625
1781099242608091000,6.0480908203125,0.73785400390625,0.6220703125,-0.123321533203125
1781099242633165800,6.073165771484375,0.736175537109375,0.621307373046875,-0.1248931884765625
1781099242658240800,6.09824072265625,0.766937255859375,0.6263427734375,-0.1166534423828125
1781099242683317000,6.12331689453125,0.7744140625,0.6282958984375,-0.117462158203125
1781099242708392000,6.148391845703125,0.7844696044921875,0.6117706298828125,-0.1529083251953125
1781099242733468000,6.173468017578125,0.7870635986328125,0.6169891357421875,-0.17633056640625
1781099242758542800,6.19854296875,0.7653045654296875,0.60498046875,-0.1843109130859375
1781099242783618800,6.223618896484375,0.785491943359375,0.554656982421875,-0.1821746826171875
1781099242808693800,6.24869384765625,0.7821197509765625,0.588287353515625,-0.1433868408203125
1781099242833769000,6.27376904296875,0.753448486328125,0.6420745849609375,-0.12481689453125
1781099242858844700,6.2988447265625,0.709686279296875,0.6352386474609375,-0.0914764404296875
1781099242883919600,6.323919677734375,0.7082061767578125,0.60284423828125,-0.0704193115234375
1781099242908995800,6.348995849609375,0.7348480224609375,0.6160888671875,-0.054718017578125
1781099242934070800,6.37407080078125,0.7570343017578125,0.68377685546875,-0.06573486328125
1781099242959147800,6.399147705078125,0.738494873046875,0.6961669921875,-0.10455322265625
1781099242984222700,6.42422265625,0.7093505859375,0.6422119140625,-0.145355224609375
1781099243009297700,6.449297607421875,0.7046966552734375,0.62762451171875,-0.16546630859375
1781099243034373600,6.47437353515625,0.725830078125,0.679901123046875,-0.141448974609375
1781099243059448600,6.499448486328125,0.755828857421875,0.78076171875,-0.1138153076171875
1781099243084524500,6.524524658203125,0.8134002685546875,0.8600616455078125,-0.111480712890625
1781099243109599500,6.549599609375,0.7853240966796875,0.7426300048828125,-0.1308441162109375
1781099243134674400,6.57467431640625,0.709991455078125,0.6099090576171875,-0.1214599609375
1781099243159750700,6.599750732421875,0.6593170166015625,0.601226806640625,-0.08026123046875
1781099243184825600,6.62482568359375,0.6623382568359375,0.640380859375,-0.0453948974609375
1781099243209901600,6.649901611328125,0.7166748046875,0.680694580078125,-0.0548248291015625
1781099243234976500,6.6749765625,0.7539520263671875,0.7266845703125,-0.07098388671875
1781099243260051500,6.700051513671875,0.759796142578125,0.738372802734375,-0.08306884765625
1781099243285127700,6.725127685546875,0.724517822265625,0.7034149169921875,-0.0912933349609375
1781099243310202600,6.75020263671875,0.7026519775390625,0.6708526611328125,-0.0892791748046875
1781099243335278600,6.775278564453125,0.7091064453125,0.6559906005859375,-0.0956268310546875
1781099243360353500,6.800353515625,0.7239837646484375,0.64910888671875,-0.105682373046875
1781099243385428700,6.8254287109375,0.7417144775390625,0.6569976806640625,-0.1098175048828125
1781099243410504700,6.850504638671875,0.7456512451171875,0.667572021484375,-0.09844970703125
1781099243435579600,6.87557958984375,0.731597900390625,0.6793975830078125,-0.075469970703125
1781099243460655600,6.900655517578125,0.714691162109375,0.6777801513671875,-0.0736846923828125
1781099243485730600,6.92573046875,0.7139739990234375,0.6763153076171875,-0.0635223388671875
1781099243510805500,6.950805419921875,0.713958740234375,0.68255615234375,-0.04412841796875
1781099243535881500,6.975881591796875,0.71014404296875,0.6909637451171875,-0.03057861328125
1781099243560956400,7.000956298828125,0.7060089111328125,0.70263671875,-0.0235748291015625
1781099243586032600,7.02603271484375,0.7078857421875,0.7017364501953125,-0.0217132568359375
1781099243611107600,7.051107666015625,0.71221923828125,0.7012939453125,-0.02264404296875
1781099243636182500,7.0761826171875,0.7251434326171875,0.69317626953125,-0.041015625
1781099243661258800,7.1012587890625,0.72894287109375,0.690338134765625,-0.0629730224609375
1781099243686333700,7.126333740234375,0.7140045166015625,0.683807373046875,-0.067535400390625
1781099243711409700,7.15140966796875,0.7072906494140625,0.6807098388671875,-0.0863037109375
1781099243736484600,7.176484619140625,0.708740234375,0.68096923828125,-0.1073150634765625
1781099243761559600,7.2015595703125,0.7170562744140625,0.6741790771484375,-0.1029510498046875
1781099243786635500,7.226635498046875,0.72332763671875,0.6761932373046875,-0.116302490234375
1781099243811710700,7.251710693359375,0.7282867431640625,0.683380126953125,-0.1246490478515625
1781099243836786400,7.276786376953125,0.7216949462890625,0.6864166259765625,-0.1137847900390625
1781099243861861400,7.301861328125,0.715362548828125,0.69305419921875,-0.1051483154296875
1781099243886936600,7.3269365234375,0.7174072265625,0.67449951171875,-0.081817626953125
1781099243912012500,7.352012451171875,0.72186279296875,0.690277099609375,-0.0965728759765625
1781099243937087500,7.37708740234375,0.7415313720703125,0.674835205078125,-0.1510772705078125
1781099243962163500,7.40216357421875,0.7368316650390625,0.6959686279296875,-0.11773681640625
1781099243987238400,7.42723828125,0.7269744873046875,0.6925201416015625,-0.0261077880859375
1781099244012313300,7.452313232421875,0.704559326171875,0.6657562255859375,-0.0619049072265625
1781099244037389600,7.4773896484375,0.7087249755859375,0.6477813720703125,-0.0535125732421875
1781099244062464500,7.502464599609375,0.702423095703125,0.6520233154296875,-0.1599273681640625
1781099244087540500,7.52754052734375,0.7017059326171875,0.656707763671875,-0.144317626953125
1781099244112615400,7.552615478515625,0.6906585693359375,0.6678009033203125,-0.0575103759765625
1781099244137690600,7.577690673828125,0.697052001953125,0.6714324951171875,-0.1162109375
1781099244162766300,7.602766357421875,0.713775634765625,0.681640625,-0.04730224609375
1781099244187841500,7.627841552734375,0.713043212890625,0.732391357421875,-0.0759124755859375
1781099244212916500,7.65291650390625,0.7275543212890625,0.7016143798828125,-0.15374755859375
1781099244237992400,7.677992431640625,0.739471435546875,0.7006378173828125,-0.10675048828125
1781099244263067400,7.7030673828125,0.75775146484375,0.64794921875,-0.1529998779296875
1781099244288143400,7.728143310546875,0.74066162109375,0.6322784423828125,-0.1119842529296875
1781099244313218300,7.75321826171875,0.6971282958984375,0.637359619140625,-0.00860595703125
1781099244338293500,7.77829345703125,0.7024688720703125,0.698974609375,-0.0597686767578125
1781099244363369500,7.803369384765625,0.7084503173828125,0.7417449951171875,0.0038909912109375
1781099244388444400,7.8284443359375,0.71185302734375,0.698486328125,-0.0966033935546875
1781099244413520600,7.853520751953125,0.735198974609375,0.6949462890625,-0.1796875
1781099244438595600,7.878595703125,0.692413330078125,0.7041015625,-0.0713043212890625
1781099244463670500,7.90367041015625,0.709259033203125,0.70355224609375,-0.0554962158203125
1781099244488746500,7.92874658203125,0.7519073486328125,0.7086639404296875,-0.1865234375
1781099244513821400,7.953821533203125,0.73095703125,0.7154083251953125,-0.2786865234375
1781099244538896600,7.978896728515625,0.6801910400390625,0.7238616943359375,-0.2877044677734375
1781099244563972400,8.003972412109375,0.664337158203125,0.7353363037109375,-0.2353515625
1781099244589047600,8.029047607421875,0.6667938232421875,0.7226409912109375,-0.181793212890625
1781099244614123300,8.054123291015625,0.67803955078125,0.6883087158203125,-0.1136932373046875
1781099244639198500,8.079198486328124,0.671142578125,0.6831512451171875,-0.05047607421875
1781099244664273400,8.1042734375,0.6510162353515625,0.7126312255859375,-0.095855712890625
1781099244689349400,8.129349365234376,0.648834228515625,0.72418212890625,-0.1087799072265625
1781099244714424300,8.15442431640625,0.6487274169921875,0.7506256103515625,-0.041259765625
1781099244739500500,8.17950048828125,0.649932861328125,0.71893310546875,-0.10009765625
1781099244764575500,8.204575439453125,0.660186767578125,0.7021942138671875,-0.0701904296875
1781099244789650400,8.229650390625,0.662109375,0.727294921875,-0.132232666015625
1781099244814726400,8.254726318359374,0.667633056640625,0.7335357666015625,-0.1242218017578125
1781099244839801600,8.279801513671876,0.6989288330078125,0.6734771728515625,-0.2774658203125
1781099244864877600,8.304877685546876,0.719635009765625,0.641357421875,-0.2787628173828125
1781099244889952500,8.329952392578125,0.68267822265625,0.689208984375,-0.1522064208984375
1781099244915027500,8.35502734375,0.6602020263671875,0.7110748291015625,-0.1376190185546875
1781099244940103400,8.380103515625,0.6778106689453125,0.730865478515625,-0.1659088134765625
1781099244965178600,8.4051787109375,0.7206573486328125,0.7236785888671875,-0.1874237060546875
1781099244990253600,8.430253662109376,0.7108306884765625,0.7059173583984375,-0.1664886474609375
1781099245015329500,8.45532958984375,0.6752471923828125,0.68255615234375,-0.1128387451171875
1781099245040404500,8.480404541015625,0.671844482421875,0.6919708251953125,-0.080535888671875
1781099245065480700,8.505480712890625,0.7065277099609375,0.707061767578125,-0.183990478515625
1781099245090555600,8.5305556640625,0.691680908203125,0.698883056640625,-0.1912841796875
1781099245115630600,8.555630615234374,0.6768951416015625,0.649566650390625,-0.121734619140625
1781099245140706600,8.58070654296875,0.673583984375,0.6587677001953125,-0.2164154052734375
1781099245165781800,8.60578173828125,0.670257568359375,0.7031097412109375,-0.2024383544921875
1781099245190856700,8.630856689453125,0.687469482421875,0.7421722412109375,-0.1710357666015625
1781099245215932700,8.6559326171875,0.70648193359375,0.699554443359375,-0.2205657958984375
1781099245241007600,8.681007568359375,0.7162933349609375,0.6820220947265625,-0.1070709228515625
1781099245266083800,8.706083740234375,0.6997222900390625,0.6536712646484375,-0.1591339111328125
1781099245291158800,8.73115869140625,0.728546142578125,0.6824188232421875,-0.1749725341796875
1781099245316233700,8.756233642578126,0.7694854736328125,0.683013916015625,-0.133941650390625
1781099245341309400,8.781309326171876,0.7862548828125,0.702972412109375,-0.2227020263671875
1781099245366384600,8.806384521484375,0.7138824462890625,0.700958251953125,-0.122100830078125
1781099245391459600,8.83145947265625,0.66217041015625,0.6555633544921875,-0.105499267578125
1781099245416535600,8.85653564453125,0.689971923828125,0.6632080078125,-0.2233428955078125
1781099245441610500,8.881610595703124,0.708709716796875,0.728851318359375,-0.1653289794921875
1781099245466686700,8.906686767578124,0.711669921875,0.720184326171875,-0.1022796630859375
1781099245491761700,8.93176171875,0.7267608642578125,0.689300537109375,-0.1764678955078125
1781099245516836600,8.956836669921875,0.705291748046875,0.68743896484375,-0.27099609375
1781099245541912600,8.98191259765625,0.6930389404296875,0.7109222412109375,-0.2859649658203125
1781099245566987500,9.006987548828125,0.6713104248046875,0.745208740234375,-0.2090301513671875
1781099245592062700,9.032062744140624,0.6898651123046875,0.7106170654296875,-0.110076904296875
1781099245617138700,9.057138671875,0.6924591064453125,0.6886749267578125,-0.03863525390625
1781099245642213600,9.082213623046876,0.6743927001953125,0.6973419189453125,-0.0397491455078125
1781099245667289900,9.107289794921876,0.6773834228515625,0.7114715576171875,-0.114044189453125
1781099245692364800,9.13236474609375,0.691070556640625,0.6767578125,-0.175994873046875
1781099245717439700,9.157439697265625,0.6833343505859375,0.63726806640625,-0.1559295654296875
1781099245742515500,9.182515380859375,0.668701171875,0.62664794921875,-0.1258392333984375
1781099245767590400,9.20759033203125,0.682525634765625,0.6161041259765625,-0.1017913818359375
1781099245792665600,9.23266552734375,0.70074462890625,0.622344970703125,-0.14862060546875
1781099245817741600,9.257741455078126,0.722259521484375,0.614044189453125,-0.1924285888671875
1781099245842816500,9.28281640625,0.74871826171875,0.6298065185546875,-0.2437896728515625
1781099245867892700,9.307892822265625,0.7894439697265625,0.6759490966796875,-0.266143798828125
1781099245892967700,9.3329677734375,0.77301025390625,0.70367431640625,-0.3195953369140625
1781099245918042600,9.358042724609374,0.73846435546875,0.671051025390625,-0.2941436767578125
1781099245943118800,9.383118896484374,0.6855316162109375,0.6654052734375,-0.227752685546875
1781099245968193800,9.40819384765625,0.693756103515625,0.6468353271484375,-0.15472412109375
1781099245993268700,9.433268798828125,0.7251739501953125,0.6335906982421875,-0.1480865478515625
1781099246018344700,9.4583447265625,0.7365264892578125,0.629547119140625,-0.2727813720703125
1781099246043419600,9.483419677734375,0.70965576171875,0.6513519287109375,-0.309600830078125
1781099246068496000,9.508495849609375,0.6968994140625,0.700531005859375,-0.1916351318359375
1781099246093570800,9.53357080078125,0.732421875,0.6870880126953125,-0.1148834228515625
1781099246118645800,9.558645751953126,0.7576751708984375,0.6446685791015625,-0.2000579833984375
1781099246143721700,9.5837216796875,0.7283782958984375,0.6533355712890625,-0.2504730224609375
1781099246168796700,9.608796630859375,0.7207489013671875,0.62420654296875,-0.195953369140625
1781099246193871600,9.63387158203125,0.749298095703125,0.5908355712890625,-0.27508544921875
1781099246218947600,9.658947509765625,0.78515625,0.6027069091796875,-0.364990234375
1781099246244022500,9.6840224609375,0.7810211181640625,0.593994140625,-0.316162109375
1781099246269098800,9.7090986328125,0.75811767578125,0.58770751953125,-0.312225341796875
1781099246294173700,9.734173583984376,0.7683258056640625,0.603515625,-0.393829345703125
1781099246319248600,9.75924853515625,0.770965576171875,0.612579345703125,-0.3875732421875
1781099246344324900,9.784324951171875,0.7514495849609375,0.5966644287109375,-0.283477783203125
1781099246369399800,9.80939990234375,0.753814697265625,0.6017303466796875,-0.308013916015625
1781099246394475800,9.834475830078125,0.7830657958984375,0.6075439453125,-0.3695831298828125
1781099246419550700,9.85955078125,0.7823028564453125,0.620086669921875,-0.3095855712890625
1781099246444625700,9.884625732421876,0.7859039306640625,0.6029510498046875,-0.2705841064453125
1781099246469702000,9.909701904296876,0.789398193359375,0.5724945068359375,-0.265411376953125
1781099246494776800,9.93477685546875,0.778106689453125,0.5630645751953125,-0.349822998046875
1781099246519852500,9.9598525390625,0.7667999267578125,0.573822021484375,-0.351806640625
1781099246544927500,9.984927490234375,0.75384521484375,0.559967041015625,-0.3377532958984375
1781099246570002700,10.010002685546874,0.762908935546875,0.540771484375,-0.367401123046875
1781099246595078700,10.03507861328125,0.7864990234375,0.5475006103515625,-0.3988037109375
1781099246620153600,10.060153564453126,0.80120849609375,0.5484619140625,-0.39019775390625
1781099246645228500,10.085228515625,0.824127197265625,0.5542144775390625,-0.36602783203125
1781099246670304800,10.1103046875,0.7959442138671875,0.5475921630859375,-0.369964599609375
1781099246695379700,10.135379638671875,0.747161865234375,0.550262451171875,-0.374237060546875
1781099246720455700,10.16045556640625,0.76617431640625,0.546905517578125,-0.3272857666015625
1781099246745530600,10.185530517578124,0.80908203125,0.557647705078125,-0.343719482421875
1781099246770605800,10.210605712890626,0.83209228515625,0.552978515625,-0.41094970703125
1781099246795681800,10.235681884765626,0.8316192626953125,0.533111572265625,-0.423553466796875
1781099246820756700,10.2607568359375,0.8089599609375,0.5335845947265625,-0.4011077880859375
1781099246845832700,10.285832763671875,0.8378448486328125,0.5248565673828125,-0.4138946533203125
1781099246870908000,10.310907958984375,0.9029998779296875,0.532073974609375,-0.4234619140625
1781099246895982800,10.33598291015625,0.8855743408203125,0.58038330078125,-0.4410858154296875
1781099246921058600,10.36105859375,0.9188995361328125,0.58837890625,-0.5028839111328125
1781099246946133000,10.386133056640626,0.9481964111328125,0.523345947265625,-0.560516357421875
1781099246971209000,10.411208984375,1.02288818359375,0.4267578125,-0.67315673828125
1781099246996284000,10.436283935546875,1.0120391845703125,0.3277587890625,-0.7573089599609375
1781099247021358800,10.46135888671875,0.9449615478515625,0.25189208984375,-0.79083251953125
1781099247046434800,10.486434814453125,0.8023223876953125,0.165618896484375,-0.6676177978515625
1781099247071510000,10.511510009765624,0.739532470703125,0.117919921875,-0.6219024658203125
1781099247096586000,10.5365859375,0.8057098388671875,0.0578155517578125,-0.4600372314453125
1781099247121661000,10.561660888671875,0.8081207275390625,0.0097808837890625,-0.2995758056640625
1781099247161782000,10.601781982421874,0.758087158203125,0.060089111328125,-0.3379974365234375
1781099247201901800,10.64190185546875,0.6560516357421875,-0.09295654296875,-0.433685302734375
1781099247242023000,10.68202294921875,0.6894378662109375,-0.141448974609375,-0.4676666259765625
1781099247282143000,10.72214306640625,0.8188018798828125,-0.1241455078125,-0.36968994140625
1781099247322264000,10.76226416015625,0.813568115234375,-0.0276947021484375,-0.4735260009765625
1781099247362385200,10.80238525390625,0.941680908203125,-0.00872802734375,-0.745941162109375
1781099247402505000,10.8425048828125,1.0437469482421875,0.21600341796875,-0.6348724365234375
1781099247442626000,10.8826259765625,0.8588409423828125,-0.019287109375,-0.3766326904296875
1781099247482747100,10.9227470703125,0.802978515625,0.083648681640625,-0.505706787109375
1781099247522867000,10.962866943359375,0.927337646484375,0.0753936767578125,-0.4930877685546875
1781099247562988000,11.002988037109375,0.929931640625,0.1269378662109375,-0.522369384765625
1781099247603108900,11.04310888671875,0.8244476318359375,0.064178466796875,-0.48895263671875
1781099247643229000,11.08322900390625,0.876068115234375,0.0936431884765625,-0.4882659912109375
1781099247683349800,11.123349853515625,0.8965911865234375,0.1856536865234375,-0.4657135009765625
1781099247723470800,11.163470947265624,0.8318328857421875,0.1251983642578125,-0.4234161376953125
1781099247763591200,11.203591064453125,0.8330078125,0.093170166015625,-0.461822509765625
1781099247803712000,11.2437119140625,0.8565521240234375,0.1873931884765625,-0.4105682373046875
1781099247843833000,11.2838330078125,0.78033447265625,0.31903076171875,-0.298858642578125
1781099247883953000,11.323952880859375,0.8966217041015625,0.423248291015625,-0.3218231201171875
1781099247924074000,11.364073974609376,1.067657470703125,0.5323486328125,-0.2613372802734375
1781099247964194800,11.40419482421875,0.8297576904296875,0.4787750244140625,-0.257659912109375
1781099248004316000,11.44431591796875,0.8768310546875,0.39691162109375,-0.2787933349609375
1781099248044437000,11.48443701171875,0.9834442138671875,0.34051513671875,-0.382781982421875
1781099248084556800,11.524556884765625,0.830596923828125,0.2749481201171875,-0.4114227294921875
1781099248124678000,11.564677978515626,0.855010986328125,0.2024383544921875,-0.4473419189453125
1781099248164798700,11.604798828125,0.9145965576171875,0.3294830322265625,-0.4709625244140625
1781099248204918800,11.644918701171875,0.7726898193359375,0.282623291015625,-0.3307342529296875
1781099248245039900,11.685039794921876,0.8686065673828125,0.329864501953125,-0.2738494873046875
1781099248285160700,11.72516064453125,1.0157470703125,0.2009124755859375,-0.27508544921875
1781099248325281000,11.765281005859375,0.978759765625,0.1708221435546875,-0.5052490234375
1781099248365401900,11.80540185546875,0.95782470703125,0.07421875,-0.539031982421875
1781099248405523000,11.84552294921875,0.7761383056640625,-0.1130828857421875,-0.7074127197265625
1781099248445643000,11.88564306640625,0.57623291015625,-0.1802215576171875,-0.6345062255859375
1781099248485763800,11.925763916015624,0.7696685791015625,0.1010894775390625,-0.48138427734375
1781099248525885000,11.965885009765625,1.1023712158203125,0.2457275390625,-0.4478759765625
1781099248566006000,12.006006103515626,0.9714508056640625,0.1730499267578125,-0.4751739501953125
1781099248606125800,12.046125732421874,0.751220703125,0.16864013671875,-0.3848876953125
1781099248646247000,12.086246826171875,0.8592681884765625,0.199951171875,-0.372467041015625
1781099248686367700,12.12636767578125,0.9226837158203125,0.1796417236328125,-0.4870452880859375
1781099248726487800,12.16648779296875,0.886505126953125,0.101959228515625,-0.5202178955078125
1781099248766608600,12.206608642578125,0.89263916015625,0.0811614990234375,-0.4815826416015625
1781099248806729700,12.246729736328126,0.8984832763671875,0.1844635009765625,-0.479766845703125
1781099248846849800,12.286849853515625,0.9239349365234375,0.2064971923828125,-0.4983367919921875
1781099248886971000,12.326970947265625,0.9803009033203125,0.125396728515625,-0.550262451171875
1781099248927091700,12.367091796875,0.9711761474609375,0.109375,-0.4441986083984375
1781099248967211000,12.4072109375,0.8887786865234375,0.1076812744140625,-0.4815521240234375
1781099249007332000,12.44733203125,0.93438720703125,0.1451873779296875,-0.4865570068359375
1781099249047453200,12.487453125,0.983551025390625,0.1463165283203125,-0.56146240234375
1781099249087573000,12.527572998046875,0.8349761962890625,0.122314453125,-0.52728271484375
1781099249127694000,12.567694091796875,0.84716796875,0.140777587890625,-0.4613800048828125
1781099249167815000,12.60781494140625,0.91217041015625,0.1042633056640625,-0.4828948974609375
1781099249207935000,12.64793505859375,0.8653717041015625,0.102691650390625,-0.5473480224609375
1781099249248056000,12.68805615234375,0.84234619140625,0.1489715576171875,-0.5183563232421875
1781099249288177000,12.728177001953124,0.8503265380859375,0.1049041748046875,-0.378631591796875
1781099249328298000,12.768298095703125,0.9331512451171875,0.131927490234375,-0.4589691162109375
1781099249368418000,12.80841796875,0.93048095703125,0.1163482666015625,-0.539703369140625
1781099249408539100,12.8485390625,0.814208984375,0.136077880859375,-0.42138671875
1781099249448660200,12.88866015625,0.9010162353515625,0.1630096435546875,-0.4892425537109375
1781099249488780000,12.928780029296876,0.8687286376953125,0.1171722412109375,-0.448974609375
1781099249528901000,12.968901123046875,0.7947540283203125,0.071441650390625,-0.4866943359375
1781099249569022200,13.009022216796875,0.9505615234375,0.1837005615234375,-0.4829559326171875
1781099249609142000,13.04914208984375,0.890655517578125,0.1543426513671875,-0.4846343994140625
1781099249649263000,13.08926318359375,0.853240966796875,0.1906280517578125,-0.4585113525390625
1781099249689384000,13.129384033203126,0.926116943359375,0.1739501953125,-0.3966827392578125
1781099249729505000,13.169505126953124,0.8607330322265625,0.169403076171875,-0.4297637939453125
1781099249769625000,13.209625,0.8587493896484375,0.094451904296875,-0.5204010009765625
1781099249809746000,13.249745849609376,0.8853912353515625,0.098175048828125,-0.48175048828125
1781099249849867000,13.289866943359375,0.8402862548828125,0.127410888671875,-0.49700927734375
1781099249889987000,13.329987060546875,0.939849853515625,0.1804962158203125,-0.490234375
1781099249930108200,13.370108154296876,0.93701171875,0.133026123046875,-0.476409912109375
1781099249970229500,13.4102294921875,0.889190673828125,0.15301513671875,-0.4377593994140625
1781099250010350600,13.4503505859375,0.7960205078125,0.140411376953125,-0.42742919921875
1781099250050470700,13.490470703125,0.8321685791015625,0.13092041015625,-0.4581298828125
1781099250090591500,13.530591552734375,0.89190673828125,0.16693115234375,-0.4735565185546875
1781099250130712600,13.570712646484376,0.858734130859375,0.093597412109375,-0.5002593994140625
1781099250170832400,13.610832275390624,0.81134033203125,0.184539794921875,-0.386260986328125
1781099250210953500,13.650953369140625,0.8593902587890625,0.237335205078125,-0.4395751953125
1781099250251074600,13.691074462890626,0.9108428955078125,0.251068115234375,-0.4334869384765625
1781099250291195400,13.7311953125,0.7953643798828125,0.2641143798828125,-0.311187744140625
1781099250331315500,13.7713154296875,0.84716796875,0.329833984375,-0.3587493896484375
1781099250371436500,13.8114365234375,0.986572265625,0.4335479736328125,-0.31024169921875
1781099250411557400,13.851557373046875,0.90423583984375,0.421630859375,-0.4164276123046875
1781099250451678500,13.891678466796876,0.837371826171875,0.444488525390625,-0.3033294677734375
1781099250491798500,13.931798583984374,0.8783111572265625,0.3496856689453125,-0.3292236328125
1781099250531919400,13.97191943359375,0.9500274658203125,0.2932281494140625,-0.350128173828125
1781099250572040400,14.01204052734375,0.8775482177734375,0.3341064453125,-0.3928680419921875
1781099250612160500,14.052160400390624,0.7832489013671875,0.29718017578125,-0.3779296875
1781099250652281600,14.092281494140625,0.9084930419921875,0.3097991943359375,-0.383880615234375
1781099250692402700,14.132402587890626,0.9124298095703125,0.3780975341796875,-0.31103515625
1781099250732523500,14.1725234375,0.8193206787109375,0.269500732421875,-0.3282470703125
1781099250772643600,14.2126435546875,0.89678955078125,0.2462158203125,-0.3482513427734375
1781099250812764400,14.252764404296874,1.0191497802734375,0.2392730712890625,-0.49481201171875
1781099250852885500,14.292885498046875,0.8210296630859375,0.109771728515625,-0.595794677734375
1781099250893006600,14.333006591796876,0.6783599853515625,0.141998291015625,-0.426727294921875
1781099250933126400,14.37312646484375,0.8544921875,0.23187255859375,-0.3430023193359375
1781099250973247500,14.41324755859375,1.03936767578125,0.2164154052734375,-0.4159088134765625
1781099251013368300,14.453368408203126,0.8472137451171875,0.2310638427734375,-0.4894561767578125
1781099251053489400,14.493489501953125,0.789398193359375,0.2608795166015625,-0.4630584716796875
1781099251093609500,14.533609375,0.944915771484375,0.26995849609375,-0.3562469482421875
1781099251133730300,14.573730224609376,0.852325439453125,0.141326904296875,-0.4503021240234375
1781099251173851400,14.613851318359375,0.838653564453125,0.223968505859375,-0.371978759765625
1781099251213972500,14.653972412109376,0.947906494140625,0.1805267333984375,-0.428558349609375
1781099251254092500,14.694092529296874,0.971710205078125,0.201568603515625,-0.4973907470703125
1781099251294213600,14.734213623046875,0.844024658203125,0.217864990234375,-0.3936004638671875
1781099251334334500,14.77433447265625,0.815765380859375,0.1125946044921875,-0.43768310546875
1781099251374455600,14.81445556640625,0.942901611328125,0.229827880859375,-0.415374755859375
1781099251414575600,14.85457568359375,0.8419342041015625,0.2106475830078125,-0.57012939453125
1781099251454696400,14.894696533203126,0.869781494140625,0.25152587890625,-0.3900146484375
1781099251494817500,14.934817626953125,0.94708251953125,0.1806488037109375,-0.361236572265625
1781099251534938600,14.974938720703125,0.8246307373046875,0.14068603515625,-0.46044921875
1781099251575058400,15.015058349609374,0.9809112548828125,0.271575927734375,-0.41448974609375
1781099251615179500,15.055179443359375,0.910797119140625,0.0861968994140625,-0.4870758056640625
1781099251655300400,15.09530029296875,0.7888031005859375,0.2744598388671875,-0.476104736328125
1781099251695421400,15.13542138671875,0.8485870361328125,0.128814697265625,-0.283050537109375
1781099251735541200,15.175541259765625,1.0767822265625,0.29302978515625,-0.6514739990234375
1781099251775662300,15.215662353515626,0.8123931884765625,0.1079559326171875,-0.371185302734375
1781099251815783400,15.255783447265625,0.8563385009765625,0.1299591064453125,-0.5410614013671875
1781099251855904300,15.295904296875,0.974151611328125,0.266510009765625,-0.4190521240234375
1781099251896024600,15.336024658203126,0.8429412841796875,0.16436767578125,-0.42559814453125
1781099251936145700,15.376145751953125,0.8153076171875,0.1921844482421875,-0.432464599609375
1781099251976266500,15.4162666015625,0.8514251708984375,0.1624298095703125,-0.4135894775390625
1781099252016387600,15.4563876953125,0.8573455810546875,0.229522705078125,-0.3925628662109375
1781099252056508400,15.49650830078125,0.8965911865234375,0.192840576171875,-0.519317626953125
1781099252096628700,15.536628662109376,0.9204254150390625,0.26226806640625,-0.4196929931640625
1781099252136749800,15.576749755859375,0.853240966796875,0.1342620849609375,-0.4904632568359375
1781099252176870700,15.61687060546875,0.9460906982421875,0.2839508056640625,-0.422943115234375
1781099252216991700,15.65699169921875,0.9008636474609375,0.1088714599609375,-0.54034423828125
1781099252257111600,15.697111572265625,0.8927154541015625,0.2579498291015625,-0.45025634765625
1781099252297232600,15.737232666015625,0.8288116455078125,0.108795166015625,-0.4312896728515625
1781099252337353700,15.777353759765624,0.99578857421875,0.36041259765625,-0.54144287109375
1781099252377474600,15.817474609375,0.7498321533203125,0.131134033203125,-0.421142578125
1781099252417594600,15.8575947265625,0.8571319580078125,0.2232208251953125,-0.38507080078125
1781099252457715500,15.897715576171874,0.96795654296875,0.2681884765625,-0.5091400146484375
1781099252497836500,15.93783642578125,0.82464599609375,0.224761962890625,-0.4608917236328125
1781099252537957600,15.97795751953125,0.84918212890625,0.2437286376953125,-0.4426422119140625
1781099252578078500,16.018078369140625,0.9879302978515625,0.1738433837890625,-0.511688232421875
1781099252618198500,16.058198486328124,0.8260650634765625,0.16790771484375,-0.47637939453125
1781099252658319600,16.098319580078126,0.8686981201171875,0.2060699462890625,-0.445068359375
1781099252698440400,16.1384404296875,0.9934539794921875,0.2157745361328125,-0.4973602294921875
1781099252738561500,16.1785615234375,0.8266143798828125,0.181182861328125,-0.4160919189453125
1781099252778682600,16.2186826171875,0.7965545654296875,0.1537933349609375,-0.486907958984375
1781099252818802700,16.258802734375,0.9370269775390625,0.248077392578125,-0.42340087890625
1781099252858923800,16.298923828125,0.9219818115234375,0.22467041015625,-0.4296112060546875
1781099252899044600,16.339044677734375,0.774322509765625,0.2342529296875,-0.4096527099609375
1781099252939165700,16.379165771484374,0.8304290771484375,0.1674346923828125,-0.4172821044921875
1781099252979285200,16.41928515625,1.0178070068359375,0.2837371826171875,-0.505767822265625
1781099253019406300,16.45940625,0.7947235107421875,0.151336669921875,-0.57830810546875
1781099253059527200,16.499527099609374,0.8017730712890625,0.270721435546875,-0.38262939453125
1781099253099648300,16.539648193359376,1.0259552001953125,0.240234375,-0.501861572265625
1781099253139769300,16.579769287109375,0.8578948974609375,0.258880615234375,-0.416412353515625
1781099253179889200,16.61988916015625,0.8377532958984375,0.166259765625,-0.496063232421875
1781099253220010200,16.66001025390625,0.9433441162109375,0.2010498046875,-0.50311279296875
1781099253260131000,16.700131103515623,0.8765716552734375,0.2253570556640625,-0.54132080078125
1781099253300252200,16.740252197265626,0.8415679931640625,0.211700439453125,-0.4937896728515625
1781099253340373200,16.780373291015625,0.9203338623046875,0.2404632568359375,-0.4193267822265625
1781099253380493000,16.8204931640625,0.927764892578125,0.1895904541015625,-0.3472900390625
1781099253420614100,16.8606142578125,0.715057373046875,0.1006622314453125,-0.3963775634765625
1781099253460735200,16.9007353515625,0.8539581298828125,0.3043365478515625,-0.6163330078125
1781099253500856000,16.94085595703125,1.0004425048828125,0.2067413330078125,-0.6016845703125
1781099253540977200,16.98097705078125,0.8174285888671875,0.147705078125,-0.346221923828125
1781099253581097200,17.02109716796875,0.904876708984375,0.2257232666015625,-0.524078369140625
1781099253621218300,17.06121826171875,0.9319305419921875,0.20452880859375,-0.387451171875
1781099253661339400,17.10133935546875,0.7945098876953125,0.2529144287109375,-0.4201202392578125
1781099253701460200,17.141460205078126,0.8824005126953125,0.250030517578125,-0.56414794921875
1781099253741581300,17.181581298828124,0.909698486328125,0.295562744140625,-0.3737945556640625
1781099253781701400,17.221701416015627,0.7655487060546875,0.2700347900390625,-0.401947021484375
1781099253821822200,17.261822265625,0.9220428466796875,0.405609130859375,-0.2428741455078125
1781099253861943300,17.301943359375,0.807891845703125,0.3881378173828125,-0.3677825927734375
1781099253902064400,17.342064453125,0.91632080078125,0.4333953857421875,-0.3096466064453125
1781099253942185200,17.382185302734374,0.8812713623046875,0.3439788818359375,-0.391754150390625
1781099253982304800,17.4223046875,0.8015289306640625,0.3724212646484375,-0.3731231689453125
1781099254022425900,17.46242578125,0.8975372314453125,0.3748931884765625,-0.2463226318359375
1781099254062547000,17.502546875,0.857391357421875,0.2379302978515625,-0.3778533935546875
1781099254102667800,17.542667724609377,0.9351806640625,0.3905792236328125,-0.40399169921875
1781099254142788900,17.582788818359376,1.0264739990234375,0.3534393310546875,-0.4274749755859375
1781099254182908700,17.62290869140625,0.7795867919921875,0.2621307373046875,-0.276824951171875
1781099254223029800,17.66302978515625,0.7449798583984375,0.326416015625,-0.4149627685546875
1781099254263150800,17.70315087890625,1.036865234375,0.436309814453125,-0.4110107421875
1781099254303271700,17.743271728515627,0.7803802490234375,0.308380126953125,-0.279449462890625
1781099254343392800,17.783392822265625,0.7595367431640625,0.4297027587890625,-0.4039306640625
1781099254383513000,17.82351318359375,1.0373687744140625,0.4000701904296875,-0.4562835693359375
1781099254423634000,17.863634033203127,0.716522216796875,0.2133026123046875,-0.2569580078125
1781099254463755000,17.903755126953126,1.0449066162109375,0.329620361328125,-0.482086181640625
1781099254503876000,17.9438759765625,1.15789794921875,0.3155517578125,-0.6184844970703125
1781099254543997000,17.983996826171875,0.4648284912109375,0.04437255859375,-0.390106201171875
1781099254584118000,18.024117919921874,0.837677001953125,0.3087921142578125,-0.502777099609375
1781099254624237800,18.06423779296875,1.235504150390625,0.40380859375,-0.3474273681640625
1781099254664359000,18.10435888671875,0.7266845703125,0.2794189453125,-0.3137054443359375
1781099254704480000,18.14447998046875,0.7249755859375,0.36767578125,-0.3715362548828125
1781099254744600800,18.184600830078125,0.9499359130859375,0.3060150146484375,-0.248748779296875
1781099254784722000,18.224721923828124,0.9674224853515625,0.3566741943359375,-0.47705078125
1781099254824843000,18.264843017578126,0.83038330078125,0.2764129638671875,-0.4777374267578125
1781099254864962800,18.304962890625,0.8457794189453125,0.235076904296875,-0.3787994384765625
1781099254905084000,18.345083984375,0.88226318359375,0.3337860107421875,-0.4455413818359375
1781099254945205000,18.385205078125,0.7959442138671875,0.256072998046875,-0.3837890625
1781099254985326000,18.425326171875,0.924896240234375,0.2631378173828125,-0.31683349609375
1781099255025447200,18.465447265625,0.9528961181640625,0.2855377197265625,-0.40179443359375
1781099255065567000,18.50556689453125,0.809600830078125,0.3094940185546875,-0.537933349609375
1781099255105688000,18.54568798828125,0.7700958251953125,0.29437255859375,-0.341766357421875
1781099255145809200,18.58580908203125,0.8624114990234375,0.37310791015625,-0.3453826904296875
1781099255185930000,18.625929931640623,1.0956573486328125,0.314453125,-0.4080963134765625
1781099255226051000,18.666051025390626,0.6988067626953125,0.2227783203125,-0.3472442626953125
1781099255266172200,18.706172119140625,0.849609375,0.281341552734375,-0.520599365234375
1781099255306293000,18.74629296875,0.975616455078125,0.3582000732421875,-0.40228271484375
1781099255346413000,18.7864130859375,0.867340087890625,0.2377471923828125,-0.412200927734375
1781099255386534000,18.826533935546873,0.8323211669921875,0.2586517333984375,-0.3970947265625
1781099255426655000,18.866655029296876,0.8312225341796875,0.26556396484375,-0.45098876953125
1781099255466776000,18.906776123046875,0.9897003173828125,0.4609832763671875,-0.4662933349609375
1781099255506897000,18.94689697265625,0.872039794921875,0.2139434814453125,-0.3993988037109375
1781099255547017200,18.987017333984376,0.7784576416015625,0.21502685546875,-0.2884521484375
1781099255587138000,19.027137939453127,1.0649566650390625,0.389373779296875,-0.5613250732421875
1781099255627259100,19.067259033203126,0.8536376953125,0.2713775634765625,-0.390838623046875
1781099255667380000,19.1073798828125,0.7277679443359375,0.198822021484375,-0.35101318359375
1781099255707501000,19.1475009765625,0.9740753173828125,0.3889923095703125,-0.4351959228515625
1781099255747622000,19.187621826171874,0.9701690673828125,0.3329010009765625,-0.493804931640625
1781099255787743000,19.227742919921877,0.7094879150390625,0.19610595703125,-0.348846435546875
1781099255827863000,19.267863037109375,0.89599609375,0.4449615478515625,-0.3482208251953125
1781099255867984100,19.307984130859374,0.95843505859375,0.1954345703125,-0.49017333984375
1781099255908105200,19.348105224609377,0.804229736328125,0.3278656005859375,-0.3773956298828125
1781099255948226000,19.38822607421875,0.94097900390625,0.3135223388671875,-0.613677978515625
1781099255988347100,19.42834716796875,0.73052978515625,0.2071075439453125,-0.1969146728515625
1781099256028468200,19.46846826171875,0.9042205810546875,0.331573486328125,-0.556976318359375
1781099256068588000,19.508588134765624,0.9496002197265625,0.3536529541015625,-0.3928070068359375
1781099256108709000,19.548709228515627,0.7336883544921875,0.2318267822265625,-0.29840087890625
1781099256148830200,19.588830322265625,0.8928985595703125,0.3322601318359375,-0.3599700927734375
1781099256188951000,19.628950927734376,0.9409942626953125,0.400360107421875,-0.4670562744140625
1781099256229072100,19.669072021484375,0.7958984375,0.276031494140625,-0.4517364501953125
1781099256269193200,19.709193115234374,0.970611572265625,0.3397369384765625,-0.4063720703125
1781099256309314000,19.74931396484375,0.8907318115234375,0.272247314453125,-0.3514862060546875
1781099256349434000,19.78943408203125,0.7372283935546875,0.2644195556640625,-0.475128173828125
1781099256389555000,19.829554931640626,1.1246795654296875,0.3795928955078125,-0.476104736328125
1781099256429676000,19.869676025390625,0.8291473388671875,0.2949371337890625,-0.3255767822265625
1781099256469797000,19.909797119140624,0.686614990234375,0.130523681640625,-0.36602783203125
1781099256509918000,19.94991796875,0.973785400390625,0.48876953125,-0.3441314697265625
1781099256550039000,19.9900390625,0.8692779541015625,0.25982666015625,-0.62322998046875
1781099256590160100,20.03016015625,0.7494354248046875,0.3181304931640625,-0.1792755126953125
1781099256630280000,20.070280029296875,1.060882568359375,0.312225341796875,-0.5695953369140625
1781099256670401000,20.110401123046874,0.9445953369140625,0.3245086669921875,-0.3247528076171875
1781099256710522000,20.150522216796876,0.6929473876953125,0.2457733154296875,-0.5131072998046875
1781099256750643000,20.190642822265627,0.967498779296875,0.3663330078125,-0.383819580078125
1781099256790764000,20.230763916015626,1.0398712158203125,0.32940673828125,-0.4969482421875
1781099256830885000,20.270885009765625,0.6277008056640625,0.20269775390625,-0.3453521728515625
1781099256871005200,20.311005126953123,0.87457275390625,0.371551513671875,-0.3731231689453125
1781099256911126000,20.3511259765625,0.9831085205078125,0.340118408203125,-0.4424285888671875
1781099256951247000,20.3912470703125,0.7574462890625,0.2617950439453125,-0.3589019775390625
1781099256991368200,20.4313681640625,0.7696990966796875,0.275543212890625,-0.4621734619140625
1781099257031489300,20.4714892578125,0.9291229248046875,0.4559478759765625,-0.3147125244140625
1781099257071610400,20.5116103515625,0.8674163818359375,0.399658203125,-0.4033203125
1781099257111731200,20.551731201171876,0.772216796875,0.354644775390625,-0.23504638671875
1781099257151851500,20.5918515625,1.08856201171875,0.4263916015625,-0.400115966796875
1781099257191972400,20.631972412109373,0.821044921875,0.373443603515625,-0.4279022216796875
1781099257232093400,20.672093505859376,0.8277130126953125,0.375152587890625,-0.457855224609375
1781099257272214500,20.712214599609375,1.0074920654296875,0.3679962158203125,-0.4058380126953125
1781099257312335400,20.75233544921875,0.808990478515625,0.294769287109375,-0.2628173828125
1781099257352456400,20.79245654296875,0.772216796875,0.3167266845703125,-0.409149169921875
1781099257392577500,20.83257763671875,0.89501953125,0.5086517333984375,-0.321044921875
1781099257432697300,20.872697265625,0.866180419921875,0.44415283203125,-0.3013763427734375
1781099257472818400,20.912818359375,0.844268798828125,0.4212799072265625,-0.1940765380859375
1781099257512939500,20.952939453125,0.94049072265625,0.36431884765625,-0.4409637451171875
1781099257553060400,20.993060302734374,0.9628448486328125,0.4180450439453125,-0.3924560546875
1781099257593181400,21.033181396484373,0.8036041259765625,0.288543701171875,-0.4410858154296875
1781099257633302500,21.073302490234376,0.868438720703125,0.3123626708984375,-0.291473388671875
1781099257673423400,21.11342333984375,0.878692626953125,0.36859130859375,-0.4359893798828125
1781099257713544400,21.15354443359375,0.9573516845703125,0.4378509521484375,-0.296112060546875
1781099257753664300,21.193664306640624,0.80657958984375,0.3179931640625,-0.3295440673828125
1781099257793785300,21.233785400390627,0.7874603271484375,0.3822784423828125,-0.3464508056640625
1781099257833906400,21.273906494140626,1.039154052734375,0.4451751708984375,-0.5088653564453125
1781099257874027300,21.31402734375,0.77313232421875,0.30706787109375,-0.351165771484375
1781099257914148400,21.3541484375,0.7826995849609375,0.392486572265625,-0.237152099609375
1781099257954269400,21.39426953125,0.9843597412109375,0.422760009765625,-0.342193603515625
1781099257994390300,21.434390380859377,0.799041748046875,0.359344482421875,-0.3699798583984375
1781099258034510000,21.474510009765623,0.9200592041015625,0.447021484375,-0.3905029296875
1781099258074631200,21.514631103515626,1.049835205078125,0.3007965087890625,-0.3604583740234375
1781099258114752300,21.554752197265625,0.694366455078125,0.2955474853515625,-0.42559814453125
1781099258154873000,21.594873046875,0.9245758056640625,0.37847900390625,-0.415283203125
1781099258194994200,21.634994140625,0.9902801513671875,0.3323211669921875,-0.330780029296875
1781099258235115300,21.675115234375,0.6437835693359375,0.35296630859375,-0.4009857177734375
1781099258275236000,21.715236083984376,0.9375152587890625,0.4059295654296875,-0.261016845703125
1781099258315357200,21.755357177734375,0.8961944580078125,0.3319549560546875,-0.3448944091796875
1781099258355477000,21.79547705078125,0.783721923828125,0.35626220703125,-0.3446197509765625
1781099258395598000,21.83559814453125,0.9671783447265625,0.42498779296875,-0.359893798828125
1781099258435719200,21.87571923828125,0.7452850341796875,0.2428131103515625,-0.37384033203125
1781099258475840000,21.915840087890626,0.8712921142578125,0.383392333984375,-0.2896270751953125
1781099258515961000,21.955961181640625,1.052978515625,0.4930267333984375,-0.37908935546875
1781099258556082200,21.996082275390624,0.822113037109375,0.324737548828125,-0.318389892578125
1781099258596203300,22.036203369140626,0.7145233154296875,0.3555145263671875,-0.210296630859375
1781099258636324000,22.076323974609377,1.0866546630859375,0.4662628173828125,-0.4804534912109375
1781099258676444400,22.1164443359375,0.9231109619140625,0.420257568359375,-0.325592041015625
1781099258716565200,22.156565185546874,0.718597412109375,0.298797607421875,-0.28961181640625
1781099258756686300,22.196686279296873,0.9246063232421875,0.342864990234375,-0.2822265625
1781099258796807200,22.23680712890625,0.8363189697265625,0.3125762939453125,-0.3824462890625
1781099258836928300,22.27692822265625,0.9234161376953125,0.473724365234375,-0.356781005859375
1781099258877049000,22.317049072265625,0.8636322021484375,0.340576171875,-0.3376007080078125
1781099258917170200,22.357170166015624,0.6921539306640625,0.2718658447265625,-0.2173614501953125
1781099258957291500,22.39729150390625,0.9052276611328125,0.3851776123046875,-0.4110565185546875
1781099258997411800,22.437411865234374,0.941680908203125,0.4352874755859375,-0.31646728515625
1781099259037533000,22.477532958984376,0.8459625244140625,0.304656982421875,-0.453155517578125
1781099259077653800,22.51765380859375,0.7607879638671875,0.3193511962890625,-0.3232421875
1781099259117774800,22.55777490234375,0.97906494140625,0.4126129150390625,-0.382720947265625
1781099259157895700,22.597895751953125,0.9796905517578125,0.424346923828125,-0.3109283447265625
1781099259198016800,22.638016845703124,0.7095947265625,0.2341461181640625,-0.3991546630859375
1781099259238137600,22.6781376953125,0.880035400390625,0.4313507080078125,-0.2898406982421875
1781099259278258700,22.7182587890625,1.0268402099609375,0.367828369140625,-0.41290283203125
1781099259318378800,22.758378662109376,0.764862060546875,0.279571533203125,-0.3257293701171875
1781099259358499800,22.798499755859375,0.7703857421875,0.340728759765625,-0.3626556396484375
1781099259398620700,22.83862060546875,1.0338134765625,0.345703125,-0.3577423095703125
1781099259438741800,22.87874169921875,0.762725830078125,0.3430633544921875,-0.26202392578125
1781099259478862800,22.91886279296875,0.808502197265625,0.329833984375,-0.369537353515625
1781099259518983700,22.958983642578126,1.0279693603515625,0.3515777587890625,-0.2923431396484375
1781099259559104800,22.999104736328125,0.729583740234375,0.2799530029296875,-0.332977294921875
1781099259599225900,23.039225830078124,0.95269775390625,0.43731689453125,-0.422576904296875
1781099259639346700,23.0793466796875,0.959320068359375,0.346893310546875,-0.329437255859375
1781099259679466800,23.119466796875,0.8365936279296875,0.269287109375,-0.3702850341796875
1781099259719587800,23.159587890625,0.9407196044921875,0.2752685546875,-0.4210968017578125
1781099259759708700,23.199708740234374,0.916229248046875,0.276824951171875,-0.462310791015625
1781099259799829800,23.239829833984373,0.8402862548828125,0.27325439453125,-0.545013427734375
1781099259839950800,23.279950927734376,0.886383056640625,0.2792816162109375,-0.3907470703125
1781099259880071700,23.32007177734375,0.8381500244140625,0.21636962890625,-0.40472412109375
1781099259920192800,23.36019287109375,0.8692169189453125,0.3008575439453125,-0.386749267578125
1781099259960312800,23.400312744140624,0.8709259033203125,0.291778564453125,-0.51446533203125
1781099260000434000,23.440433837890627,0.7974853515625,0.340850830078125,-0.274444580078125
1781099260040553700,23.4805537109375,0.9287872314453125,0.2464599609375,-0.4023284912109375
1781099260080674800,23.5206748046875,0.9703216552734375,0.248565673828125,-0.4033355712890625
1781099260120796000,23.5607958984375,0.826751708984375,0.2151336669921875,-0.503692626953125
1781099260160916700,23.600916748046874,0.9012603759765625,0.26605224609375,-0.407257080078125
1781099260201037800,23.641037841796877,0.920684814453125,0.2347869873046875,-0.4625396728515625
1781099260241159000,23.681158935546875,0.784881591796875,0.2649078369140625,-0.3950958251953125
1781099260281279700,23.72127978515625,0.9573211669921875,0.3236846923828125,-0.36181640625
1781099260321400800,23.76140087890625,0.8394012451171875,0.111846923828125,-0.2985382080078125
1781099260361520600,23.801520751953124,0.813140869140625,0.1923980712890625,-0.4217071533203125
1781099260401641700,23.841641845703126,1.0756072998046875,0.2799835205078125,-0.4880828857421875
1781099260441762800,23.8817626953125,0.8222808837890625,0.2275543212890625,-0.295440673828125
1781099260481883600,23.921883544921876,0.758697509765625,0.1711883544921875,-0.4383392333984375
1781099260522004700,23.962004638671875,0.9305419921875,0.2390594482421875,-0.35443115234375
1781099260562125800,24.002125732421874,0.960418701171875,0.19390869140625,-0.4652099609375
1781099260602246700,24.04224658203125,0.8980255126953125,0.247283935546875,-0.397552490234375
1781099260642367700,24.08236767578125,0.7359619140625,0.1390838623046875,-0.339202880859375
1781099260682488800,24.12248876953125,0.834381103515625,0.358123779296875,-0.3008575439453125
1781099260722609700,24.162609619140625,1.13006591796875,0.3698883056640625,-0.465789794921875
1781099260762730000,24.20272998046875,0.410125732421875,0.32403564453125,0.047576904296875
1781099260802851000,24.24285107421875,1.0294952392578125,0.07086181640625,-0.506195068359375
1781099260842972000,24.282971923828125,1.793365478515625,0.4442138671875,-0.8180694580078125
1781099260883093000,24.323093017578124,0.354766845703125,0.0225677490234375,-0.622528076171875
1781099260923214000,24.363214111328126,0.6002044677734375,0.1242218017578125,-0.3164215087890625
1781099260963335200,24.403335205078125,1.190765380859375,0.26220703125,-0.227386474609375
1781099261003456000,24.4434560546875,0.925872802734375,0.31829833984375,-0.4553375244140625
1781099261043577000,24.4835771484375,0.441864013671875,0.1205596923828125,-0.2882232666015625
1781099261083698200,24.5236982421875,0.8197784423828125,0.282562255859375,-0.4354400634765625
1781099261123819000,24.563819091796876,1.0327301025390625,0.30462646484375,-0.3055419921875
1781099261163940000,24.603940185546875,0.836395263671875,0.1826629638671875,-0.4915618896484375
1781099261204060400,24.644060302734374,0.774932861328125,0.221435546875,-0.2964019775390625
1781099261244181200,24.68418115234375,1.1000213623046875,0.2076873779296875,-0.427703857421875
1781099261284302300,24.72430224609375,0.8871002197265625,0.282196044921875,-0.39739990234375
1781099261324423400,24.76442333984375,0.7873382568359375,0.1768951416015625,-0.450347900390625
1781099261364544300,24.804544189453125,0.897125244140625,0.2706298828125,-0.4742584228515625
1781099261404665300,24.844665283203124,0.856109619140625,0.28277587890625,-0.40289306640625
1781099261444786400,24.884786376953127,0.8973541259765625,0.26263427734375,-0.452392578125
1781099261484907300,24.9249072265625,0.6392669677734375,0.1996307373046875,-0.282684326171875
1781099261525028400,24.9650283203125,0.7519073486328125,0.22613525390625,-0.4684600830078125
1781099261565149200,25.005149169921875,0.9426116943359375,0.4583587646484375,-0.4100494384765625
1781099261605270300,25.045270263671874,0.722198486328125,0.244964599609375,-0.365936279296875
1781099261645391000,25.08539111328125,0.7692413330078125,0.296539306640625,-0.3659210205078125
1781099261685511200,25.12551123046875,1.0036773681640625,0.4255218505859375,-0.4758758544921875
1781099261725632300,25.16563232421875,0.9729461669921875,0.2659759521484375,-0.53802490234375
1781099261765753300,25.20575341796875,0.903228759765625,0.3226165771484375,-0.3935699462890625
1781099261805874200,25.245874267578124,0.912689208984375,0.2640533447265625,-0.5005645751953125
1781099261845995300,25.285995361328126,0.8616790771484375,0.3074951171875,-0.3935394287109375
1781099261886116400,25.326116455078125,0.9213714599609375,0.324005126953125,-0.5502471923828125
1781099261926237200,25.3662373046875,0.9354705810546875,0.3150177001953125,-0.42962646484375
1781099261966358500,25.406358642578127,0.771697998046875,0.2163238525390625,-0.3765411376953125
1781099262006479400,25.446479248046874,0.889739990234375,0.3012847900390625,-0.399993896484375
1781099262046600400,25.486600341796876,0.9873504638671875,0.3455352783203125,-0.518829345703125
1781099262086721500,25.526721435546875,0.8170166015625,0.237762451171875,-0.443359375
1781099262126842400,25.56684228515625,0.8671722412109375,0.2056121826171875,-0.409149169921875
1781099262166963500,25.60696337890625,0.8533477783203125,0.232452392578125,-0.4068450927734375
1781099262207084500,25.64708447265625,0.6903228759765625,0.2148590087890625,-0.39349365234375
1781099262247205400,25.687205322265626,0.786773681640625,0.35076904296875,-0.290283203125
1781099262287326200,25.727326171875,0.830291748046875,0.3862762451171875,-0.4063568115234375
1781099262327446500,25.767446533203124,0.8442535400390625,0.3325958251953125,-0.240325927734375
1781099262367567400,25.8075673828125,0.8700408935546875,0.2077789306640625,-0.332489013671875
1781099262407688400,25.8476884765625,1.2447509765625,0.4800262451171875,-0.532440185546875
1781099262447809500,25.8878095703125,0.8813629150390625,0.2982940673828125,-0.5963897705078125
1781099262487930400,25.927930419921875,0.875152587890625,0.2456817626953125,-0.40655517578125
1781099262528051500,25.968051513671874,1.1962738037109375,0.4059906005859375,-0.521697998046875
1781099262568172500,26.008172607421876,0.979461669921875,0.4368896484375,-0.3914337158203125
1781099262608293400,26.04829345703125,0.6614990234375,0.2547454833984375,-0.2159576416015625
1781099262648414500,26.08841455078125,0.807891845703125,0.06585693359375,-0.3802032470703125
1781099262688535600,26.12853564453125,1.294342041015625,0.4679107666015625,-0.4146270751953125
1781099262728656400,26.168656494140624,0.610626220703125,0.395416259765625,-0.822479248046875
1781099262768777500,26.208777587890626,0.1590576171875,0.309539794921875,0.5626678466796875
1781099262808898600,26.248898681640625,0.9174346923828125,0.0566864013671875,-0.2705535888671875
1781099262849019400,26.289019287109376,2.051116943359375,0.1337890625,-0.2730865478515625
1781099262889140500,26.329140380859375,0.5478668212890625,0.3339080810546875,-1.225799560546875
1781099262929261600,26.369261474609374,0.910247802734375,0.2323760986328125,-0.5454864501953125
1781099262969382000,26.4093818359375,0.54241943359375,0.2458648681640625,-0.2074127197265625
1781099263009502700,26.449502685546875,0.710601806640625,0.2276763916015625,-0.0363006591796875
1781099263049623800,26.489623779296874,0.8166961669921875,0.28790283203125,-0.195587158203125
1781099263089745000,26.529744873046877,1.127532958984375,0.46160888671875,-0.3070220947265625
1781099263129865700,26.56986572265625,0.8645172119140625,0.441497802734375,-0.2811126708984375
1781099263169986800,26.60998681640625,0.7191162109375,0.2439117431640625,-0.4307861328125
1781099263210108000,26.65010791015625,1.414154052734375,0.426544189453125,-0.4689788818359375
1781099263250228700,26.690228759765624,0.9876708984375,0.2386474609375,-0.4502716064453125
1781099263290349800,26.730349853515627,0.686676025390625,0.184600830078125,-0.3414154052734375
1781099263330471000,26.770470947265625,0.9300994873046875,0.334716796875,-0.4412994384765625
1781099263370591700,26.810591796875,0.86932373046875,0.29339599609375,-0.2456817626953125
1781099263410712800,26.850712890625,0.5253448486328125,0.1586761474609375,-0.2768096923828125
1781099263450834000,26.890833984375,0.66278076171875,0.29217529296875,-0.16119384765625
1781099263490954800,26.930954833984377,0.8839874267578125,0.383026123046875,-0.3972320556640625
1781099263531075800,26.971075927734375,0.7697601318359375,0.3494110107421875,-0.2442626953125
1781099263571196700,27.01119677734375,0.644744873046875,0.2001953125,-0.3506317138671875
1781099263611317800,27.05131787109375,1.014404296875,0.4270477294921875,-0.349212646484375
1781099263651438600,27.0914384765625,1.0792083740234375,0.389556884765625,-0.4767303466796875
1781099263691559700,27.1315595703125,0.944549560546875,0.328765869140625,-0.469757080078125
1781099263731679700,27.1716796875,1.0144500732421875,0.4118194580078125,-0.3830413818359375
1781099263771800800,27.21180078125,0.98455810546875,0.2393035888671875,-0.3861083984375
1781099263811921700,27.251921630859375,0.9194488525390625,0.291534423828125,-0.3062286376953125
1781099263852042800,27.292042724609374,0.893707275390625,0.302734375,-0.6326904296875
1781099263892163800,27.332163818359376,0.8501129150390625,0.2690582275390625,-0.338104248046875
1781099263932284700,27.37228466796875,0.72930908203125,0.1783294677734375,-0.38140869140625
1781099263972405200,27.4124052734375,1.0081024169921875,0.37109375,-0.46087646484375
1781099264012526300,27.4525263671875,0.864471435546875,0.2734375,-0.4380950927734375
1781099264052647400,27.4926474609375,0.881988525390625,0.3152923583984375,-0.437408447265625
1781099264092768300,27.532768310546874,0.901641845703125,0.254852294921875,-0.3836212158203125
1781099264132889300,27.572889404296873,0.875885009765625,0.24981689453125,-0.376220703125
1781099264173010400,27.613010498046876,0.979888916015625,0.3484954833984375,-0.412506103515625
1781099264213131300,27.65313134765625,0.8571624755859375,0.1703338623046875,-0.454376220703125
1781099264253252400,27.69325244140625,0.85888671875,0.2414398193359375,-0.3139190673828125
1781099264293373400,27.73337353515625,0.911773681640625,0.2171478271484375,-0.4654541015625
1781099264333494300,27.773494384765623,0.7220306396484375,0.1927032470703125,-0.27435302734375
1781099264373615400,27.813615478515626,0.7653656005859375,0.2800750732421875,-0.5101318359375
1781099264413736400,27.853736328125,1.0818939208984375,0.32440185546875,-0.2859344482421875
1781099264453856300,27.893856201171875,0.7681427001953125,0.0929412841796875,-0.3443450927734375
1781099264493977300,27.933977294921874,0.7421875,0.2107696533203125,-0.2788543701171875
1781099264534098200,27.97409814453125,1.0779876708984375,0.24822998046875,-0.501129150390625
1781099264574219300,28.01421923828125,0.701324462890625,0.190673828125,-0.147613525390625
1781099264614340400,28.05434033203125,0.8113861083984375,0.2085113525390625,-0.4986572265625
1781099264654461200,28.094461181640625,0.9494171142578125,0.2595062255859375,-0.25653076171875
1781099264694582300,28.134582275390624,0.85858154296875,0.25,-0.4199371337890625
1781099264734703400,28.174703369140627,0.873260498046875,0.3132476806640625,-0.33905029296875
1781099264774824200,28.21482421875,0.804931640625,0.224853515625,-0.3650970458984375
1781099264814945300,28.2549453125,1.0718841552734375,0.2763519287109375,-0.49127197265625
1781099264855066400,28.29506640625,1.0623931884765625,0.2513885498046875,-0.4217681884765625
1781099264895187200,28.335187255859374,0.625152587890625,0.2164764404296875,-0.3202667236328125
1781099264935308300,28.375308349609377,0.980438232421875,0.332427978515625,-0.488739013671875
1781099264975429000,28.41542919921875,0.9853515625,0.193389892578125,-0.35772705078125
1781099265015550200,28.45555029296875,0.7761383056640625,0.1337127685546875,-0.4606781005859375
1781099265055671000,28.495671142578125,0.8466796875,0.2385406494140625,-0.2933502197265625
1781099265095792000,28.535792236328124,0.7201080322265625,0.17388916015625,-0.4116973876953125
1781099265135913200,28.575913330078127,1.0117340087890625,0.2799224853515625,-0.130950927734375
1781099265176034000,28.616033935546874,0.933929443359375,0.114715576171875,-0.4492340087890625
1781099265216155100,28.656155029296876,0.642974853515625,0.153106689453125,0.1328125
1781099265256275200,28.696275146484375,0.8836669921875,0.347015380859375,-0.6162261962890625
1781099265296396000,28.73639599609375,1.180328369140625,0.2680511474609375,-0.51092529296875
1781099265336517000,28.77651708984375,1.0384674072265625,0.3224945068359375,-0.5090484619140625
1781099265376638200,28.81663818359375,0.6902923583984375,0.2360687255859375,-0.451324462890625
1781099265416759000,28.856759033203126,0.9816436767578125,0.1624298095703125,-0.30682373046875
1781099265456880000,28.896880126953125,0.846527099609375,0.284149169921875,-0.3931427001953125
1781099265497001200,28.937001220703124,0.7198486328125,0.200531005859375,-0.4431915283203125
1781099265537122000,28.9771220703125,0.8890228271484375,0.2989959716796875,-0.3706207275390625
1781099265577243100,29.0172431640625,0.8242034912109375,0.3076019287109375,-0.300262451171875
1781099265617364200,29.0573642578125,0.9055023193359375,0.3083343505859375,-0.4729766845703125
1781099265657485000,29.097485107421875,0.896026611328125,0.189483642578125,-0.3803863525390625
1781099265697606100,29.137606201171874,0.954559326171875,0.2225494384765625,-0.4444580078125
1781099265737727200,29.177727294921876,1.107574462890625,0.19598388671875,-0.570343017578125
1781099265777848000,29.21784814453125,0.75323486328125,0.19415283203125,-0.2423858642578125
1781099265817969200,29.25796923828125,1.015289306640625,0.279510498046875,-0.6052703857421875
1781099265858090200,29.29809033203125,1.042510986328125,0.32891845703125,-0.306640625
1781099265898211000,29.338211181640624,0.7355804443359375,0.28076171875,-0.2883148193359375
1781099265938332200,29.378332275390626,0.9028472900390625,0.357208251953125,-0.28466796875
1781099265978453000,29.418452880859373,1.0331878662109375,0.3946533203125,-0.334381103515625
1781099266018573800,29.45857373046875,0.8861083984375,0.3810272216796875,-0.212005615234375
1781099266058695000,29.49869482421875,0.8374176025390625,0.400665283203125,-0.3092498779296875
1781099266098816000,29.53881591796875,1.048553466796875,0.53851318359375,-0.2637939453125
1781099266138935800,29.578935791015624,0.8679962158203125,0.4144287109375,-0.336395263671875
1781099266179057000,29.619056884765627,0.8816986083984375,0.4145965576171875,-0.362762451171875
1781099266219177700,29.659177734375,1.0369415283203125,0.46630859375,-0.277191162109375
1781099266259298800,29.699298828125,0.8229217529296875,0.461212158203125,-0.216064453125
1781099266299420000,29.739419921875,0.9434661865234375,0.44390869140625,-0.22735595703125
1781099266339540700,29.779540771484374,0.9336395263671875,0.372772216796875,-0.35687255859375
1781099266379661800,29.819661865234377,0.953460693359375,0.3503875732421875,-0.3933258056640625
1781099266419783000,29.859782958984376,0.9700164794921875,0.3506927490234375,-0.358184814453125
1781099266459902700,29.89990283203125,0.8539276123046875,0.321807861328125,-0.343475341796875
1781099266500023800,29.94002392578125,1.028839111328125,0.3524627685546875,-0.2884521484375
1781099266540145000,29.980144775390624,0.996826171875,0.3634033203125,-0.292877197265625
1781099266580265700,30.020265625,0.909271240234375,0.3415069580078125,-0.393798828125
1781099266620386800,30.06038671875,1.010406494140625,0.3160552978515625,-0.4273529052734375
1781099266660508000,30.1005078125,0.986663818359375,0.3878173828125,-0.3091583251953125
1781099266700628700,30.140628662109375,0.91265869140625,0.2429656982421875,-0.3800506591796875
1781099266740749800,30.180749755859374,0.7013397216796875,0.2103729248046875,-0.2387542724609375
1781099266780871000,30.220870849609376,1.113739013671875,0.3503265380859375,-0.4834136962890625
1781099266820991700,30.26099169921875,0.851165771484375,0.421539306640625,-0.2555389404296875
1781099266861112800,30.30111279296875,0.562469482421875,0.1764984130859375,-0.242706298828125
1781099266901234000,30.34123388671875,1.3195343017578125,0.536285400390625,-0.4103546142578125
1781099266941354800,30.381354736328124,0.99169921875,0.345489501953125,-0.4576416015625
1781099266981476600,30.4214765625,0.7123260498046875,0.2066192626953125,-0.3563690185546875
1781099267021597700,30.46159765625,1.0843658447265625,0.295013427734375,-0.425933837890625
1781099267061718800,30.50171875,1.2213897705078125,0.42816162109375,-0.4621124267578125
1781099267101839600,30.541839599609375,0.5366363525390625,0.2723846435546875,-0.2185211181640625
1781099267141960700,30.581960693359374,0.596343994140625,0.16632080078125,-0.0582733154296875
1781099267182081800,30.622081787109376,1.4215850830078125,0.5064697265625,-0.5741729736328125
1781099267222202600,30.66220263671875,0.9613189697265625,0.413970947265625,-0.384033203125
1781099267262323700,30.70232373046875,0.508636474609375,0.2509918212890625,-0.13995361328125
1781099267302444800,30.74244482421875,1.01043701171875,0.2941741943359375,-0.2937469482421875
1781099267342565600,30.782565673828124,1.31585693359375,0.4429779052734375,-0.4426116943359375
1781099267382686700,30.822686767578126,0.8182373046875,0.3754730224609375,-0.441925048828125
1781099267422807800,30.862807861328125,0.7628326416015625,0.2216339111328125,-0.3126983642578125
1781099267462928600,30.9029287109375,1.1232452392578125,0.398773193359375,-0.28533935546875
1781099267503049700,30.9430498046875,1.003204345703125,0.3037261962890625,-0.446563720703125
1781099267543170800,30.9831708984375,0.7786712646484375,0.302032470703125,-0.3705902099609375
1781099267583291600,31.023291748046876,1.02630615234375,0.392608642578125,-0.209320068359375
1781099267623412700,31.063412841796875,0.8231658935546875,0.28326416015625,-0.3525390625
1781099267663533600,31.103533447265626,0.8533782958984375,0.36761474609375,-0.3773345947265625
1781099267703654400,31.143654296875,1.1717071533203125,0.458526611328125,-0.414520263671875
1781099267743775500,31.183775390625,0.7065277099609375,0.2174072265625,-0.1979217529296875
1781099267783896600,31.223896484375,0.9584503173828125,0.307830810546875,-0.4480133056640625
1781099267824017400,31.264017333984373,1.289031982421875,0.4728546142578125,-0.4930267333984375
1781099267864138500,31.304138427734376,0.7716827392578125,0.292205810546875,-0.321258544921875
1781099267904259600,31.344259521484375,0.79107666015625,0.22515869140625,-0.2723846435546875
1781099267944380400,31.38438037109375,1.0913238525390625,0.295562744140625,-0.3770904541015625
1781099267984501000,31.4245009765625,0.879364013671875,0.2601165771484375,-0.4446563720703125
1781099268024622000,31.4646220703125,0.887420654296875,0.413330078125,-0.3377685546875
1781099268064743200,31.5047431640625,0.925323486328125,0.3698577880859375,-0.353057861328125
1781099268104864000,31.544864013671877,0.7316131591796875,0.216888427734375,-0.2193603515625
1781099268144985000,31.584985107421875,1.050750732421875,0.231719970703125,-0.467315673828125
1781099268185106000,31.62510595703125,1.1210479736328125,0.18145751953125,-0.715057373046875
1781099268225227000,31.66522705078125,0.672607421875,0.1719970703125,-0.3752593994140625
1781099268265347800,31.705347900390624,0.91766357421875,0.31219482421875,-0.3588104248046875
1781099268305469000,31.745468994140627,1.1604156494140625,0.2642822265625,-0.4435882568359375
1781099268345590000,31.785590087890625,0.764007568359375,0.267974853515625,-0.3746795654296875
1781099268385710800,31.8257109375,1.0103759765625,0.316253662109375,-0.3651580810546875
1781099268425832000,31.86583203125,0.9297027587890625,0.2259674072265625,-0.3209991455078125
1781099268465953000,31.905953125,0.8225555419921875,0.1351470947265625,-0.5290374755859375
1781099268506073900,31.946073974609376,0.9950103759765625,0.3547210693359375,-0.4993438720703125
1781099268546195000,31.98619482421875,0.9836273193359375,0.2314300537109375,-0.561492919921875
1781099268586316000,32.02631591796875,0.629241943359375,0.1400146484375,-0.1367034912109375
1781099268626436900,32.066436767578125,1.02276611328125,0.1982574462890625,-0.4730682373046875
1781099268666558000,32.10655786132813,1.2403717041015625,0.33624267578125,-0.5574798583984375
1781099268706679000,32.14667895507812,0.5775909423828125,0.088409423828125,-0.292449951171875
1781099268746799900,32.1867998046875,0.969329833984375,0.254241943359375,-0.494049072265625
1781099268786921000,32.2269208984375,1.0573883056640625,0.2627716064453125,-0.3529052734375
1781099268827042000,32.2670419921875,0.827880859375,0.156097412109375,-0.4540863037109375
1781099268867163000,32.307162841796874,0.993621826171875,0.312103271484375,-0.252288818359375
1781099268907284000,32.347283935546876,0.93426513671875,0.1253509521484375,-0.3752593994140625
1781099268947405000,32.38740502929687,0.980926513671875,0.1392974853515625,-0.401702880859375
1781099268987526000,32.42752587890625,0.72216796875,-0.0686492919921875,-0.6585845947265625
1781099269027647000,32.46764697265625,1.176116943359375,0.4429473876953125,-0.7236480712890625
1781099269067768000,32.50776806640625,0.6600799560546875,0.3825225830078125,-0.51348876953125
1781099269107889000,32.54788891601562,0.1114654541015625,-0.196807861328125,0.455474853515625
1781099269148010000,32.588010009765625,1.6459808349609375,0.6793670654296875,-0.9036865234375
1781099269188131000,32.62813110351563,1.289337158203125,0.6341094970703125,-0.33367919921875
1781099269228252000,32.668251953125,0.4106292724609375,-0.0084991455078125,-0.38629150390625
1781099269268373000,32.708373046875,1.0774383544921875,0.395965576171875,-0.2549591064453125
1781099269308494000,32.748494140625,1.3618621826171875,0.12274169921875,-0.44940185546875
1781099269348614000,32.78861376953125,0.5490570068359375,0.1179351806640625,-0.5066070556640625
1781099269388736000,32.828736083984374,0.7973175048828125,0.247467041015625,-0.5036468505859375
1781099269428857000,32.86885717773438,1.0889434814453125,0.2901458740234375,-0.3904571533203125
1781099269468977000,32.908976806640624,0.7631988525390625,0.1073760986328125,-0.4288330078125
1781099269509099000,32.94909912109375,0.895111083984375,0.2090606689453125,-0.4709625244140625
1781099269549218800,32.98921875,0.90386962890625,0.2307281494140625,-0.3789825439453125
1781099269589340000,33.02933984375,0.8802490234375,0.228179931640625,-0.259979248046875
1781099269629461000,33.0694609375,0.925201416015625,0.188079833984375,-0.4437713623046875
1781099269669583000,33.1095830078125,0.8684539794921875,0.1573028564453125,-0.42974853515625
1781099269709703000,33.14970288085937,0.92852783203125,0.2510833740234375,-0.5271759033203125
1781099269749824000,33.189823974609375,0.9619140625,0.2755126953125,-0.404083251953125
1781099269789944800,33.22994482421875,0.8584136962890625,0.199737548828125,-0.4055633544921875
1781099269830066000,33.27006591796875,0.8364715576171875,0.14678955078125,-0.411865234375
1781099269870187000,33.31018701171875,0.9284820556640625,0.243804931640625,-0.453338623046875
1781099269910307800,33.350307861328126,0.92193603515625,0.266571044921875,-0.432159423828125
1781099269950429000,33.39042895507812,0.8093719482421875,0.191619873046875,-0.33441162109375
1781099269990550000,33.430550048828124,0.86065673828125,0.1588134765625,-0.431976318359375
1781099270030670800,33.4706708984375,0.9562225341796875,0.3029327392578125,-0.3553009033203125
1781099270070792000,33.5107919921875,0.7226715087890625,0.2230987548828125,-0.30413818359375
1781099270110913000,33.5509130859375,0.9323272705078125,0.16583251953125,-0.4459075927734375
1781099270151033900,33.591033935546875,1.004425048828125,0.241302490234375,-0.5351715087890625
1781099270191155000,33.63115502929688,0.784393310546875,0.1966705322265625,-0.490509033203125
1781099270231276000,33.67127612304687,0.892547607421875,0.2201385498046875,-0.372283935546875
1781099270271396900,33.71139697265625,0.9394073486328125,0.223907470703125,-0.5204315185546875
1781099270311518000,33.75151806640625,0.842071533203125,0.2679443359375,-0.37115478515625
1781099270351639000,33.79163916015625,0.879638671875,0.151092529296875,-0.4465179443359375
1781099270391760000,33.831759765625,0.82513427734375,0.1397247314453125,-0.332244873046875
1781099270431881000,33.871880859375,0.875579833984375,0.2595062255859375,-0.555450439453125
1781099270472002000,33.912001953125,0.910400390625,0.3049163818359375,-0.3407745361328125
1781099270512123000,33.95212280273437,0.7400054931640625,0.1216888427734375,-0.3069000244140625
1781099270552244000,33.992243896484375,0.97601318359375,0.207061767578125,-0.5001068115234375
1781099270592365000,34.03236499023438,0.9453887939453125,0.29840087890625,-0.3516998291015625
1781099270632486000,34.07248583984375,0.7483367919921875,0.1873321533203125,-0.441986083984375
1781099270672607000,34.11260693359375,0.854522705078125,0.2572021484375,-0.3623046875
1781099270712728000,34.15272802734375,1.0350799560546875,0.258453369140625,-0.519073486328125
1781099270752849000,34.19284887695313,0.8216705322265625,0.1943206787109375,-0.408050537109375
1781099270792970000,34.232969970703124,0.81317138671875,0.2067108154296875,-0.4492950439453125
1781099270833091000,34.273091064453126,0.90606689453125,0.3257904052734375,-0.4042205810546875
1781099270873212000,34.3132119140625,0.8377227783203125,0.240447998046875,-0.4420623779296875
1781099270913333000,34.3533330078125,0.8477630615234375,0.24420166015625,-0.3253021240234375
1781099270953454000,34.3934541015625,0.8426971435546875,0.24951171875,-0.377655029296875
1781099270993576000,34.433575927734374,0.9473724365234375,0.319610595703125,-0.4552001953125
1781099271033696800,34.47369677734375,0.7354583740234375,0.26092529296875,-0.274932861328125
1781099271073817900,34.51381787109375,0.8560028076171875,0.178192138671875,-0.48126220703125
1781099271113938700,34.55393872070312,1.1621856689453125,0.3499755859375,-0.5151824951171875
1781099271154059800,34.594059814453125,0.7082672119140625,0.2252197265625,-0.4906768798828125
1781099271194180600,34.6341806640625,0.682403564453125,0.21343994140625,-0.1908416748046875
1781099271234301700,34.6743017578125,1.0606536865234375,0.3183746337890625,-0.524200439453125
1781099271274422500,34.714422607421874,1.00250244140625,0.3155670166015625,-0.413238525390625
1781099271314543600,34.754543701171876,0.7306365966796875,0.236358642578125,-0.4087371826171875
1781099271354664700,34.79466479492187,0.8074951171875,0.2493438720703125,-0.2975921630859375
1781099271394785500,34.83478564453125,0.8818511962890625,0.3024444580078125,-0.4688873291015625
1781099271434906600,34.87490673828125,0.9472808837890625,0.42681884765625,-0.4705657958984375
1781099271475027700,34.91502783203125,0.8840789794921875,0.22222900390625,-0.4665069580078125
1781099271515148500,34.9551484375,0.8291473388671875,0.2120361328125,-0.3678741455078125
1781099271555269600,34.99526953125,0.9875640869140625,0.3532867431640625,-0.563018798828125
1781099271595390700,35.035390625,0.968292236328125,0.3795013427734375,-0.4863739013671875
1781099271635511600,35.07551147460938,0.70660400390625,0.157440185546875,-0.3365936279296875
1781099271675632600,35.11563256835937,0.879425048828125,0.21368408203125,-0.36102294921875
1781099271715753700,35.155753662109376,0.8663330078125,0.324432373046875,-0.3694305419921875
1781099271755874600,35.19587451171875,0.819976806640625,0.432647705078125,-0.5017547607421875
1781099271795995600,35.23599560546875,0.7462310791015625,0.3055419921875,-0.2857208251953125
1781099271836116700,35.27611669921875,0.8724822998046875,0.2720947265625,-0.325042724609375
1781099271876237600,35.31623754882813,1.011993408203125,0.298614501953125,-0.4953460693359375
1781099271916358700,35.35635864257812,0.9169769287109375,0.32037353515625,-0.5139007568359375
1781099271956479700,35.396479736328125,0.8880157470703125,0.250640869140625,-0.4976959228515625
1781099271996600800,35.43660083007813,0.8540496826171875,0.210968017578125,-0.3721160888671875
1781099272036722000,35.47672192382812,0.8726654052734375,0.3267669677734375,-0.4642486572265625
1781099272076842800,35.5168427734375,0.9900665283203125,0.4171905517578125,-0.4185791015625
1781099272116963800,35.5569638671875,0.7245330810546875,0.2290802001953125,-0.2897491455078125
1781099272157085000,35.5970849609375,0.7762451171875,0.2454071044921875,-0.3571929931640625
1781099272197205800,35.637205810546874,0.916778564453125,0.39373779296875,-0.3712310791015625
1781099272237326800,35.677326904296876,0.84661865234375,0.4119873046875,-0.4756317138671875
1781099272277448000,35.71744799804687,0.6498260498046875,0.345245361328125,-0.19842529296875
1781099272317568800,35.75756884765625,0.9298095703125,0.4152374267578125,-0.308624267578125
1781099272357689900,35.79768994140625,0.9734954833984375,0.3602752685546875,-0.2786712646484375
1781099272397811000,35.83781103515625,0.8857574462890625,0.301300048828125,-0.4162445068359375
1781099272437931800,35.87793188476562,0.8264923095703125,0.2910308837890625,-0.451385498046875
1781099272478052900,35.918052978515625,0.901153564453125,0.2786102294921875,-0.3670806884765625
1781099272518174000,35.95817407226563,0.77984619140625,0.275665283203125,-0.3303070068359375
1781099272558294800,35.99829467773438,0.835693359375,0.3935089111328125,-0.3392486572265625
1781099272598416000,36.038415771484374,0.9336090087890625,0.465423583984375,-0.3190765380859375
1781099272638537000,36.078536865234376,0.8141326904296875,0.3280181884765625,-0.2792510986328125
1781099272678657800,36.11865771484375,0.8759918212890625,0.3324432373046875,-0.3698272705078125
1781099272718779000,36.15877880859375,0.910003662109375,0.4185638427734375,-0.3365020751953125
1781099272758900000,36.19889990234375,0.8466949462890625,0.3106689453125,-0.47833251953125
1781099272799020800,36.23902075195313,0.769378662109375,0.324615478515625,-0.2702484130859375
1781099272839142000,36.27914184570312,0.8995208740234375,0.339141845703125,-0.4083709716796875
1781099272879263000,36.319262939453125,0.900421142578125,0.3339385986328125,-0.2828369140625
1781099272919383800,36.3593837890625,0.8311920166015625,0.3316497802734375,-0.336883544921875
1781099272959505000,36.3995048828125,0.8232879638671875,0.2964019775390625,-0.3341827392578125
1781099272999625000,36.439625,0.7852630615234375,0.259185791015625,-0.302520751953125
1781099273039746000,36.47974609375,0.862060546875,0.36279296875,-0.3197021484375
1781099273079867100,36.5198671875,0.951141357421875,0.3910675048828125,-0.3622283935546875
1781099273119988200,36.55998828125,0.7149658203125,0.2862091064453125,-0.270751953125
1781099273160109000,36.60010913085937,0.84979248046875,0.4076995849609375,-0.38818359375
1781099273200230100,36.640230224609375,1.0045318603515625,0.4903564453125,-0.34295654296875
1781099273240351200,36.68035131835938,0.79156494140625,0.35247802734375,-0.2415618896484375
1781099273280472000,36.72047216796875,0.9105377197265625,0.36669921875,-0.3502044677734375
1781099273320593200,36.76059326171875,0.9937286376953125,0.3987274169921875,-0.3922119140625
1781099273360714200,36.80071435546875,0.735076904296875,0.37542724609375,-0.3492279052734375
1781099273400835000,36.8408349609375,0.8647003173828125,0.4542083740234375,-0.3946685791015625
1781099273440956200,36.8809560546875,0.866668701171875,0.420440673828125,-0.273651123046875
1781099273481077200,36.9210771484375,0.8133087158203125,0.368072509765625,-0.32244873046875
1781099273521198000,36.96119799804688,1.007232666015625,0.4447021484375,-0.4011993408203125
1781099273561319200,37.00131909179687,0.8116302490234375,0.401641845703125,-0.2728424072265625
1781099273601440300,37.041440185546875,0.8036956787109375,0.359161376953125,-0.2853546142578125
1781099273641561000,37.08156103515625,0.9196014404296875,0.4309844970703125,-0.284088134765625
1781099273681682200,37.12168212890625,0.8448638916015625,0.463348388671875,-0.3053131103515625
1781099273721803300,37.16180322265625,0.75738525390625,0.3812408447265625,-0.2931671142578125
1781099273761924000,37.201924072265626,0.8476409912109375,0.4977874755859375,-0.206878662109375
1781099273802045200,37.24204516601562,0.9144439697265625,0.494049072265625,-0.3314361572265625
1781099273842166300,37.282166259765624,0.919708251953125,0.4484405517578125,-0.284912109375
1781099273882287000,37.322287109375,0.8663177490234375,0.41705322265625,-0.235687255859375
1781099273922408200,37.362408203125,0.9344635009765625,0.5124359130859375,-0.258148193359375
1781099273962529300,37.402529296875,0.8982696533203125,0.505340576171875,-0.3614349365234375
1781099274002649900,37.44264990234375,0.771392822265625,0.332061767578125,-0.24737548828125
1781099274042770700,37.482770751953126,0.9954986572265625,0.4288787841796875,-0.2367401123046875
1781099274082891800,37.52289184570313,0.6939544677734375,0.3861541748046875,-0.389373779296875
1781099274123012900,37.563012939453124,0.88641357421875,0.6071624755859375,-0.2151641845703125
1781099274163133700,37.6031337890625,0.8630218505859375,0.46832275390625,-0.298248291015625
1781099274203254800,37.6432548828125,0.7012786865234375,0.3948822021484375,-0.14154052734375
1781099274243375900,37.6833759765625,0.943084716796875,0.52838134765625,-0.2384033203125
1781099274283496700,37.72349658203125,0.8744049072265625,0.3717193603515625,-0.3014068603515625
1781099274323617800,37.76361767578125,0.7982940673828125,0.5408782958984375,-0.3437347412109375
1781099274363739000,37.80373876953125,0.9635467529296875,0.508758544921875,-0.2318267822265625
1781099274403859700,37.84385961914062,0.891998291015625,0.45220947265625,-0.220062255859375
1781099274443980800,37.883980712890626,0.892730712890625,0.40997314453125,-0.327789306640625
1781099274484102000,37.92410180664063,0.84844970703125,0.3768310546875,-0.3853912353515625
1781099274524222700,37.96422265625,0.852447509765625,0.4832763671875,-0.365692138671875
1781099274564343800,38.00434375,0.97686767578125,0.4903717041015625,-0.24993896484375
1781099274604465000,38.04446484375,0.6631011962890625,0.3105316162109375,-0.260833740234375
1781099274644585700,38.08458569335937,0.927703857421875,0.6284942626953125,-0.2171173095703125
1781099274684706600,38.12470654296875,0.96173095703125,0.46771240234375,-0.24652099609375
1781099274724827600,38.16482763671875,0.65478515625,0.360870361328125,-0.258941650390625
1781099274764948500,38.20494848632813,0.8671875,0.5431671142578125,-0.21099853515625
1781099274805069600,38.24506958007812,1.1552581787109375,0.504119873046875,-0.273956298828125
1781099274845190700,38.285190673828126,0.668304443359375,0.3222198486328125,-0.432769775390625
1781099274885311500,38.3253115234375,0.871063232421875,0.498687744140625,-0.2111053466796875
1781099274925432600,38.3654326171875,1.142425537109375,0.4725494384765625,-0.4275970458984375
1781099274965553700,38.4055537109375,0.7749481201171875,0.377716064453125,-0.3266448974609375
1781099275005674800,38.4456748046875,0.81793212890625,0.368408203125,-0.3433837890625
1781099275045795600,38.48579565429687,0.9444427490234375,0.4028167724609375,-0.3358154296875
1781099275085916700,38.525916748046875,0.896392822265625,0.3978118896484375,-0.33477783203125
1781099275126037800,38.56603784179688,0.764862060546875,0.3166351318359375,-0.2944183349609375
1781099275166158600,38.60615869140625,0.765228271484375,0.3939361572265625,-0.2771453857421875
1781099275206279700,38.64627978515625,0.8656005859375,0.36114501953125,-0.389068603515625
1781099275246400800,38.68640087890625,0.92425537109375,0.42828369140625,-0.3508758544921875
1781099275286521600,38.726521484375,0.71337890625,0.27093505859375,-0.3506927490234375
1781099275326642700,38.766642578125,0.9719390869140625,0.42401123046875,-0.3079986572265625
1781099275366763800,38.806763671875,0.8481597900390625,0.30865478515625,-0.344329833984375
1781099275406884600,38.84688452148438,0.8290863037109375,0.4411468505859375,-0.426239013671875
1781099275447005700,38.88700561523437,0.9268798828125,0.35089111328125,-0.3793487548828125
1781099275487126800,38.927126708984375,0.898590087890625,0.351165771484375,-0.3582611083984375
1781099275527247600,38.96724755859375,0.8358001708984375,0.3759918212890625,-0.3700714111328125
1781099275567368700,39.00736865234375,0.9442138671875,0.309906005859375,-0.43798828125
1781099275607489800,39.04748974609375,0.9052276611328125,0.42095947265625,-0.3809051513671875
1781099275647610600,39.087610595703126,0.8463897705078125,0.36419677734375,-0.3365325927734375
1781099275687731700,39.12773168945313,0.83905029296875,0.28485107421875,-0.3580474853515625
1781099275727852800,39.167852783203124,0.8498687744140625,0.4004058837890625,-0.3636474609375
1781099275767973600,39.2079736328125,0.8859710693359375,0.339813232421875,-0.3898468017578125
1781099275808094700,39.2480947265625,0.8230438232421875,0.3482818603515625,-0.3539886474609375
1781099275848215800,39.2882158203125,0.8456268310546875,0.3995361328125,-0.3972930908203125
1781099275888336600,39.328336669921875,0.9774322509765625,0.4242401123046875,-0.318939208984375
1781099275928457700,39.36845776367188,0.8566436767578125,0.363311767578125,-0.344482421875
1781099275968578800,39.40857885742187,0.84014892578125,0.4016265869140625,-0.3283843994140625
1781099276008700200,39.4487001953125,0.88043212890625,0.279510498046875,-0.3166046142578125
1781099276048821200,39.4888212890625,0.96337890625,0.4246978759765625,-0.418975830078125
1781099276088942000,39.52894213867187,0.8056640625,0.4193878173828125,-0.348236083984375
1781099276129063200,39.569063232421875,0.8509368896484375,0.4044036865234375,-0.25250244140625
1781099276169184300,39.60918432617188,0.9147491455078125,0.3564300537109375,-0.306121826171875
1781099276209305000,39.64930517578125,0.856597900390625,0.37896728515625,-0.310211181640625
1781099276249426200,39.68942626953125,0.84539794921875,0.340545654296875,-0.35076904296875
1781099276289547300,39.72954736328125,0.8826751708984375,0.3420867919921875,-0.4095458984375
1781099276329668000,39.76966821289062,0.8499908447265625,0.2764739990234375,-0.3999176025390625
1781099276369789200,39.8097890625,0.88360595703125,0.3172454833984375,-0.4134674072265625
1781099276409910300,39.84991015625,0.808929443359375,0.408721923828125,-0.3431396484375
1781099276450031000,39.89003100585938,0.841461181640625,0.471954345703125,-0.2849884033203125
1781099276490152200,39.93015209960937,0.910736083984375,0.4308319091796875,-0.2214202880859375
1781099276530273300,39.970273193359375,0.86016845703125,0.447662353515625,-0.3381805419921875
1781099276570394000,40.01039404296875,0.7927398681640625,0.400390625,-0.3078155517578125
1781099276610515200,40.05051513671875,0.9779205322265625,0.407318115234375,-0.33074951171875
1781099276650636300,40.09063623046875,0.9644927978515625,0.338134765625,-0.4487762451171875
1781099276690757000,40.130757080078126,0.833770751953125,0.2594146728515625,-0.40106201171875
1781099276730878200,40.17087817382812,0.9658966064453125,0.182861328125,-0.4335784912109375
1781099276770999300,40.210999267578124,0.969146728515625,0.1092681884765625,-0.6188507080078125
1781099276811120000,40.2511201171875,0.680877685546875,0.0107879638671875,-0.546417236328125
1781099276851241200,40.2912412109375,0.65087890625,0.1666412353515625,-0.376251220703125
1781099276891361300,40.331361328125,1.02435302734375,0.253204345703125,-0.3810882568359375
1781099276931483100,40.371483154296875,1.002685546875,0.2646026611328125,-0.556182861328125
1781099276971604200,40.41160424804688,0.523590087890625,0.3136444091796875,-0.2429351806640625
1781099277011724300,40.45172436523438,0.749267578125,0.2082061767578125,-0.304046630859375
1781099277051845400,40.49184545898437,1.1790771484375,0.283599853515625,-0.439483642578125
1781099277091966200,40.53196630859375,0.9209136962890625,0.14849853515625,-0.5672454833984375
1781099277132087300,40.57208740234375,0.8186187744140625,0.158966064453125,-0.46405029296875
1781099277172208400,40.61220849609375,0.89849853515625,0.1493682861328125,-0.326416015625
1781099277212329200,40.6523291015625,0.9242095947265625,0.198486328125,-0.481109619140625
1781099277252450300,40.6924501953125,0.929931640625,0.218170166015625,-0.481353759765625
1781099277292571400,40.7325712890625,0.919830322265625,0.2572021484375,-0.402984619140625
1781099277332692200,40.77269213867187,0.8445587158203125,0.2387237548828125,-0.425140380859375
1781099277372813300,40.812813232421874,0.7888641357421875,0.2490081787109375,-0.4186859130859375
1781099277412934400,40.85293432617188,0.92437744140625,0.2957763671875,-0.4605255126953125
1781099277453055200,40.89305517578125,0.9090118408203125,0.2294158935546875,-0.4777374267578125
1781099277493176300,40.93317626953125,0.8124542236328125,0.2026824951171875,-0.39654541015625
1781099277533297400,40.97329736328125,0.8957977294921875,0.23162841796875,-0.41937255859375
1781099277573418200,41.01341821289063,0.97161865234375,0.2368316650390625,-0.4368438720703125
1781099277613539300,41.05353930664062,0.8279571533203125,0.1812286376953125,-0.4654083251953125
1781099277653660400,41.093660400390625,0.91668701171875,0.2198944091796875,-0.43878173828125
1781099277693781200,41.13378125,0.91180419921875,0.187774658203125,-0.459442138671875
1781099277733902300,41.17390234375,0.8169708251953125,0.196502685546875,-0.41510009765625
1781099277774023200,41.214023193359374,0.8950347900390625,0.1915740966796875,-0.3870086669921875
1781099277814144300,41.254144287109376,0.8702392578125,0.2106475830078125,-0.4024810791015625
1781099277854265000,41.29426513671875,0.798583984375,0.1791839599609375,-0.420623779296875
1781099277894386200,41.33438623046875,0.8980255126953125,0.2115478515625,-0.4143829345703125
1781099277934507300,41.37450732421875,0.841583251953125,0.1770172119140625,-0.3990020751953125
1781099277974628000,41.41462817382813,0.802703857421875,0.155487060546875,-0.3986358642578125
1781099278014749000,41.4547490234375,0.9394378662109375,0.280364990234375,-0.476348876953125
1781099278054870000,41.4948701171875,0.911224365234375,0.17279052734375,-0.420501708984375
1781099278094990800,41.534990966796876,0.8399200439453125,0.220550537109375,-0.398284912109375
1781099278135112000,41.57511181640625,0.9038543701171875,0.1665191650390625,-0.50701904296875
1781099278175232800,41.61523266601562,0.873779296875,0.20635986328125,-0.48724365234375
1781099278215353900,41.655353759765624,0.888763427734375,0.24859619140625,-0.5098419189453125
1781099278255474700,41.695474609375,0.9286956787109375,0.24163818359375,-0.4726409912109375
1781099278295595800,41.735595703125,0.75726318359375,0.163848876953125,-0.34661865234375
1781099278335716900,41.775716796875,0.89324951171875,0.23577880859375,-0.4213409423828125
1781099278375837700,41.815837646484376,0.865234375,0.189178466796875,-0.4180908203125
1781099278415958800,41.85595874023438,0.8180999755859375,0.2767486572265625,-0.336822509765625
1781099278456080000,41.89607983398437,0.9605712890625,0.2696533203125,-0.3665313720703125
1781099278496200700,41.93620068359375,0.8535308837890625,0.183746337890625,-0.3521728515625
1781099278536321800,41.97632177734375,0.8742218017578125,0.21270751953125,-0.38525390625
1781099278576443000,42.01644287109375,1.0193023681640625,0.1697998046875,-0.5308837890625
1781099278616563700,42.056563720703124,0.8061065673828125,0.1513519287109375,-0.5139617919921875
1781099278656684800,42.09668481445313,0.895111083984375,0.2212371826171875,-0.4683380126953125
1781099278696806000,42.13680590820312,0.9464111328125,0.1728515625,-0.437835693359375
1781099278736926700,42.1769267578125,0.7418060302734375,0.1625823974609375,-0.40228271484375
1781099278777047800,42.2170478515625,0.9188232421875,0.2169952392578125,-0.51934814453125
1781099278817169000,42.2571689453125,0.843658447265625,0.1474151611328125,-0.483551025390625
1781099278857289700,42.29728979492187,0.748565673828125,0.212249755859375,-0.44384765625
1781099278897410800,42.337410888671876,0.928466796875,0.29638671875,-0.38385009765625
1781099278937532000,42.37753198242188,0.89300537109375,0.2606353759765625,-0.277008056640625
1781099278977652700,42.41765283203125,0.8461456298828125,0.1843719482421875,-0.34124755859375
1781099279017774300,42.4577744140625,0.8092498779296875,0.1701202392578125,-0.42919921875
1781099279057895400,42.4978955078125,0.9875946044921875,0.236053466796875,-0.539276123046875
1781099279098016300,42.538016357421874,0.9206390380859375,0.2036285400390625,-0.4737396240234375
1781099279138137300,42.57813745117188,0.8375244140625,0.178314208984375,-0.457733154296875
1781099279178258400,42.61825854492187,0.916046142578125,0.2352447509765625,-0.4416656494140625
1781099279218379300,42.65837915039062,0.82818603515625,0.188385009765625,-0.3834991455078125
1781099279258500400,42.698500244140625,0.9193115234375,0.3054656982421875,-0.4291839599609375
1781099279298621400,42.73862133789063,0.8918914794921875,0.2053070068359375,-0.41888427734375
1781099279338742500,42.77874243164062,0.7929229736328125,0.1829986572265625,-0.3503875732421875
1781099279378863400,42.81886328125,0.954376220703125,0.36566162109375,-0.4349517822265625
1781099279418984400,42.858984375,0.771392822265625,0.2819061279296875,-0.3155670166015625
1781099279459105500,42.89910546875,0.8543548583984375,0.30548095703125,-0.2060394287109375
1781099279499226400,42.939226318359374,1.0634765625,0.4211883544921875,-0.419036865234375
1781099279539347500,42.97934741210938,0.7363739013671875,0.32415771484375,-0.2373199462890625
1781099279579468500,43.01946850585937,1.012420654296875,0.34100341796875,-0.3551788330078125
1781099279619589400,43.05958935546875,0.95123291015625,0.440643310546875,-0.2903594970703125
1781099279659710500,43.09971044921875,0.6769561767578125,0.38885498046875,-0.23309326171875
1781099279699831600,43.13983154296875,1.002197265625,0.5708160400390625,-0.188262939453125
1781099279739952400,43.17995239257812,0.954132080078125,0.532073974609375,-0.2462005615234375
1781099279780073500,43.220073486328126,0.859527587890625,0.2990875244140625,-0.2601470947265625
1781099279820194600,43.26019458007813,1.0440673828125,0.3980255126953125,-0.3200225830078125
1781099279860315400,43.3003154296875,0.8668212890625,0.3329315185546875,-0.3855133056640625
1781099279900436500,43.3404365234375,0.75006103515625,0.42449951171875,-0.2122955322265625
1781099279940557600,43.3805576171875,0.955535888671875,0.3769378662109375,-0.36273193359375
1781099279980678400,43.42067846679687,0.814605712890625,0.514404296875,-0.2238616943359375
1781099280020799500,43.460799560546874,0.7236175537109375,0.2916412353515625,-0.2619476318359375
1781099280060919300,43.50091918945313,1.209625244140625,0.44793701171875,-0.3118896484375
1781099280101040400,43.541040283203124,0.8159637451171875,0.4076690673828125,-0.3574676513671875
1781099280141161500,43.581161376953126,0.7868804931640625,0.4141387939453125,-0.336151123046875
1781099280181282300,43.6212822265625,1.010955810546875,0.4024200439453125,-0.2493133544921875
1781099280221403400,43.6614033203125,0.9627685546875,0.3155670166015625,-0.334381103515625
1781099280261524500,43.7015244140625,0.8100738525390625,0.3291015625,-0.227325439453125
1781099280301645300,43.74164526367188,0.8489532470703125,0.335418701171875,-0.249755859375
1781099280341766400,43.78176635742187,0.987060546875,0.37445068359375,-0.320709228515625
1781099280381887500,43.821887451171875,0.8054046630859375,0.288726806640625,-0.1807708740234375
1781099280422008300,43.86200830078125,0.85430908203125,0.2962188720703125,-0.3715667724609375
1781099280462129400,43.90212939453125,1.025390625,0.3820037841796875,-0.30535888671875
1781099280502250500,43.94225048828125,0.92431640625,0.31231689453125,-0.2709503173828125
1781099280542371300,43.982371337890626,0.8826446533203125,0.35040283203125,-0.34466552734375
1781099280582492400,44.02249243164062,0.9643402099609375,0.2836151123046875,-0.3155059814453125
1781099280622613500,44.062613525390624,0.918914794921875,0.246673583984375,-0.35504150390625
1781099280662734300,44.102734375,0.8471221923828125,0.2814788818359375,-0.3873748779296875
1781099280702855400,44.14285546875,0.9891204833984375,0.3454742431640625,-0.3926544189453125
1781099280742976500,44.1829765625,0.8190460205078125,0.342864990234375,-0.3390655517578125
1781099280783097300,44.223097412109375,0.860687255859375,0.321685791015625,-0.2537078857421875
1781099280823218400,44.26321850585938,1.00860595703125,0.294219970703125,-0.3919525146484375
1781099280863339500,44.30333959960937,0.917755126953125,0.221099853515625,-0.3502349853515625
1781099280903460400,44.34346044921875,0.937469482421875,0.151214599609375,-0.5830535888671875
1781099280943581400,44.38358154296875,0.818115234375,0.1607666015625,-0.442962646484375
1781099280983702000,44.42370190429688,0.850433349609375,0.2113037109375,-0.433990478515625
1781099281023823000,44.46382299804687,1.07354736328125,0.2661590576171875,-0.4173736572265625
1781099281063944000,44.50394384765625,0.852264404296875,0.1309051513671875,-0.462554931640625
1781099281104065000,44.54406494140625,0.7754364013671875,0.2447357177734375,-0.3641204833984375
1781099281144186000,44.58418603515625,1.0129852294921875,0.2386016845703125,-0.365081787109375
1781099281184307000,44.62430688476562,0.925506591796875,0.1679840087890625,-0.408599853515625
1781099281224428000,44.664427978515626,0.816009521484375,0.1890716552734375,-0.428558349609375
1781099281264549000,44.70454907226563,0.963775634765625,0.2127838134765625,-0.4163055419921875
1781099281304670000,44.744669921875,0.860015869140625,0.1933135986328125,-0.454345703125
1781099281344791000,44.784791015625,0.887176513671875,0.250701904296875,-0.3818511962890625
1781099281384912100,44.824912109375,0.9953765869140625,0.2802276611328125,-0.3798370361328125
1781099281425033000,44.86503295898437,0.8786468505859375,0.2382049560546875,-0.3711395263671875
1781099281465154000,44.905154052734375,0.9138641357421875,0.2366180419921875,-0.3235321044921875
1781099281505275100,44.94527514648438,0.89764404296875,0.0938262939453125,-0.3631134033203125
1781099281545396000,44.98539599609375,0.899322509765625,0.2211151123046875,-0.4757843017578125
1781099281585517000,45.02551708984375,0.9970855712890625,0.216156005859375,-0.4586029052734375
1781099281625638000,45.065637939453126,0.83331298828125,0.1902313232421875,-0.38165283203125
1781099281665759000,45.10575903320313,0.76593017578125,0.16729736328125,-0.3247528076171875
1781099281705879800,45.1458798828125,1.0658416748046875,0.193084716796875,-0.5168304443359375
1781099281746001000,45.1860009765625,0.95849609375,0.2110748291015625,-0.5168914794921875
1781099281786121700,45.22612182617188,0.7778472900390625,0.1766357421875,-0.519500732421875
1781099281826242800,45.26624291992187,0.93743896484375,0.29095458984375,-0.3623046875
1781099281866364000,45.306364013671875,0.9762725830078125,0.196136474609375,-0.38690185546875
1781099281906484700,45.346484619140625,0.772705078125,0.2154388427734375,-0.265594482421875
1781099281946605800,45.38660571289063,0.9538116455078125,0.234222412109375,-0.390289306640625
1781099281986727200,45.42672705078125,1.0121917724609375,0.303070068359375,-0.4542236328125
1781099282026848000,45.466847900390626,0.67889404296875,0.1826019287109375,-0.38897705078125
1781099282066969000,45.50696899414063,0.9709930419921875,0.2889862060546875,-0.3980255126953125
1781099282107090200,45.54709008789062,0.951019287109375,0.150177001953125,-0.4925384521484375
1781099282147211000,45.5872109375,0.7535247802734375,0.3271484375,-0.2891845703125
1781099282187332000,45.62733203125,0.9580535888671875,0.279541015625,-0.413818359375
1781099282227453200,45.667453125,0.9587860107421875,0.2140045166015625,-0.3598175048828125
1781099282267574000,45.707573974609375,0.8158416748046875,0.1847686767578125,-0.464447021484375
1781099282307695000,45.74769506835938,1.0515289306640625,0.288482666015625,-0.5063018798828125
1781099282347816200,45.78781616210937,0.81219482421875,0.225921630859375,-0.36138916015625
1781099282387937000,45.82793701171875,0.784881591796875,0.142242431640625,-0.3490447998046875
1781099282428058000,45.86805810546875,0.9795074462890625,0.273590087890625,-0.5297393798828125
1781099282468179200,45.90817919921875,0.867767333984375,0.2209014892578125,-0.3958740234375
1781099282508300000,45.94830004882812,0.9279327392578125,0.25323486328125,-0.3462982177734375
1781099282548421000,45.988421142578126,0.9101409912109375,0.2036590576171875,-0.3792724609375
1781099282588542200,46.02854223632813,0.8256072998046875,0.1986236572265625,-0.362762451171875
