time,seconds_elapsed,z,y,x
1781099236662109700,0.102109619140625,0.34487434465587136,-0.15426409451663492,-0.07030319675211794
1781099236687184600,0.1271845703125,0.25490590443909167,-0.09707155022025107,-0.13580874743154273
1781099236712259600,0.152259521484375,0.0784703101247549,-0.06444850677400828,-0.09948147003934718
1781099236737334500,0.17733447265625,0.1889525460600853,-0.11996581133455038,-0.11424949778066948
1781099236762409700,0.20240966796875,0.2651110721111297,-0.17284867573827503,-0.14751711360760963
1781099236787484700,0.227484619140625,0.21052140378952025,-0.14400953474491834,-0.058434105322696266
1781099236812559600,0.2525595703125,-0.20055998174548148,-0.07500672566741705,-0.06062424491127021
1781099236837634600,0.277634521484375,-0.12155191148221492,-0.09796265384107827,-0.07952023016964085
1781099236862709500,0.30270947265625,0.03299626067280769,-0.14801643229871989,-0.06913523981813341
1781099236887784400,0.327784423828125,0.19641747511327265,-0.1960667619794607,-0.10710669508762657
1781099236912859600,0.352859619140625,0.05532207424938678,-0.19546908834725618,-0.016071657685795798
1781099236937934600,0.3779345703125,0.018742109870910642,-0.26392010876089333,-0.09410936681325546
1781099236963008800,0.4030087890625,-0.04560848948657512,-0.22134236527234313,-0.0991356705426704
1781099236988083700,0.428083740234375,-0.035602643778920175,-0.17918489302247761,-0.0658482814361807
1781099237013159000,0.453158935546875,0.04692132565081119,-0.22138561989217995,-0.08579746554191224
1781099237038233900,0.47823388671875,-0.006631400838494301,-0.19395546891391277,-0.1368607315693516
1781099237063309800,0.503309814453125,-0.13061726146936417,-0.1724330806747079,-0.13105366185894235
1781099237088384800,0.528384765625,0.01728138966858387,-0.1721463726878166,-0.15015264974297024
1781099237113459700,0.553459716796875,0.10949731655120849,-0.16528057857155798,-0.04495822715060785
1781099237138535000,0.578534912109375,0.02537935592830181,-0.11872750171124935,-0.05941765016706194
1781099237163609900,0.60360986328125,0.05294073207080364,-0.1481631472930312,-0.17041447086129335
1781099237188685000,0.62868505859375,0.20875088698565958,-0.1524713658809662,-0.1090633455807343
1781099237213760000,0.653760009765625,0.003781272104382515,-0.14633388603925704,-0.11492714131390676
1781099237238835000,0.6788349609375,-0.03848024504184722,-0.08130787163823842,-0.060574003428220745
1781099237263910000,0.703909912109375,0.16541911025941372,-0.17900222993195056,0.0012425885061966254
1781099237288984800,0.72898486328125,0.20951836422681808,-0.12482786441296338,0.10178755502463317
1781099237314060000,0.75406005859375,0.16945055773258208,-0.16064795033484697,-0.20712421736558898
1781099237339135000,0.779135009765625,0.1666957060664892,-0.14291180263608694,-0.3354981751538813
1781099237364211000,0.8042109375,-0.08719897550344467,-0.101603640691936,-0.1862880395585671
1781099237389286000,0.829285888671875,0.020023966374993322,-0.1109630051895976,-0.25104599587423726
1781099237414360800,0.85436083984375,0.2740548415452242,-0.11406623190194368,-0.06066814798507839
1781099237439436000,0.87943603515625,0.23412673578262327,-0.17460048784166574,-0.07042174053129274
1781099237464511000,0.904510986328125,0.03736088562309742,-0.17409458414614198,-0.13148683824497273
1781099237489586000,0.9295859375,-0.2309545354872942,-0.08339607608914375,-0.12953467213073744
1781099237514660900,0.954660888671875,0.15264789149165153,-0.16029928302764893,-0.13260870014806278
1781099237539737000,0.979737060546875,0.11246610322892665,-0.21917408132255076,-0.13627777144908904
1781099237564812000,1.00481201171875,0.07836275809705257,-0.14866788194477557,-0.2105715082752518
1781099237589887000,1.029886962890625,0.16720950080752373,-0.20688129372149705,-0.22359703059764577
1781099237614962000,1.0549619140625,-0.07234685880839824,-0.1225266017332673,-0.041529362380201926
1781099237640036900,1.080036865234375,-0.35958559157550335,-0.12785890267193317,-0.10681545705609023
1781099237665111800,1.10511181640625,-0.39588732353448863,-0.07465484348982572,-0.05493946813996881
1781099237690188000,1.13018798828125,0.008028992676734924,-0.11092208865731953,0.009585871296492405
1781099237715263000,1.155262939453125,0.3235942407399416,-0.16347323688864707,0.029671390566416083
1781099237740338000,1.180337890625,0.651713265427947,-0.202746678134799,0.08888791497107594
1781099237765412900,1.205412841796875,0.24441022938787935,-0.21277678150087595,0.06029937860476784
1781099237790488800,1.23048876953125,-0.06760580176115036,-0.1667556195601821,-0.025158114393055438
1781099237815564000,1.25556396484375,0.11148586001992225,-0.09180413121134043,0.0938986284057144
1781099237840639000,1.280638916015625,0.03471943120360374,-0.08396686171442269,0.05211874816343188
1781099237865714000,1.3057138671875,0.20757482894361018,-0.16649901445060966,0.059677218985278155
1781099237890790000,1.330789794921875,0.33676410343647,-0.21895810048431158,-0.00031283794199116525
1781099237915864800,1.35586474609375,-0.021646014618873596,-0.20094664297550915,0.04891949546439573
1781099237940940000,1.38093994140625,-0.166679339453578,-0.13772446312606335,0.056408682176005094
1781099237966015000,1.406014892578125,0.0231751238822937,-0.21199936738759279,0.1203740816081874
1781099237991091200,1.43109130859375,0.08778817356824874,-0.26741847227066756,-0.029690889851329845
1781099238016166100,1.456166259765625,0.008432312780618668,-0.08422668169438838,-0.12651578096728772
1781099238041241000,1.481240966796875,0.11195464657545089,-0.19898878690600394,-0.05544954112053383
1781099238066317300,1.5063173828125,0.11577917329967022,-0.16792919338420031,-0.16268838838757946
1781099238091392300,1.531392333984375,0.07426175251901149,-0.1666091968268156,-0.1423850022830069
1781099238116467200,1.55646728515625,0.026440847679972648,-0.06214928992092609,-0.035386238248995505
1781099238141543200,1.581543212890625,0.18150281457602976,-0.10773235270529985,-0.03906752514420077
1781099238166618000,1.6066181640625,0.15685937170684336,-0.15414967435672877,-0.016698838256986346
1781099238191693300,1.631693359375,0.25372984639704227,-0.13128536998927592,-0.09428509783949703
1781099238216769300,1.656769287109375,0.019798925447463988,-0.1539445071734488,-0.027835208664799573
1781099238241844200,1.68184423828125,-0.16954408123493195,-0.08632204653844237,-0.02344665028307354
1781099238266919200,1.706919189453125,0.3022872488170862,-0.21623832013159988,-0.08466165731186047
1781099238291995400,1.731995361328125,0.17893267182707787,-0.13516951794624327,-0.018243268387124405
1781099238317070300,1.7570703125,0.31034955924153323,-0.18291633463576434,-0.17547884157877414
1781099238342145300,1.782145263671875,0.15633271748423574,-0.15441548568606375,-0.14629390108874066
1781099238367221000,1.807220947265625,0.12086276017427444,-0.07794365590214729,-0.026863356541516257
1781099238392296200,1.832296142578125,0.22815292207002638,-0.13005685110762716,-0.062904437403474
1781099238417371400,1.857371337890625,0.6034983928352594,-0.21532485854849218,-0.19568874071361497
1781099238442447000,1.882447021484375,0.8288064468681812,-0.29151655621677636,-0.12674770829332993
1781099238467522000,1.90752197265625,-0.7426806535542011,-0.014948124415427446,0.02121694586909143
1781099238492597000,1.932596923828125,-0.8998509909063577,-0.31355493115410205,-0.4211317645041272
1781099238517673200,1.957673095703125,-0.07916589117348194,-0.5450552639558911,-0.3480946584092453
1781099238542748200,1.982748046875,0.04714812014400959,-0.2850024981476366,0.00043970202493946996
1781099238567824100,2.00782421875,0.06447510251998902,0.02185147406309843,0.07710023648110217
1781099238592899300,2.0328994140625,0.1391208859205246,-0.21571663434505461,-0.19427487359400838
1781099238617974300,2.057974365234375,0.18168693897128105,-0.16132365763932466,-0.05664423536439426
1781099238643050200,2.08305029296875,0.1462134745299816,-0.3274180368117988,-0.2960258868673816
1781099238668125200,2.108125244140625,-0.5813660560041666,0.24787673645466565,0.30655944624356923
1781099238693200100,2.1332001953125,-0.1251256783157587,0.3948771235786378,0.5632529647517949
1781099238718276400,2.1582763671875,0.4470271436631679,-0.1300064360946417,0.1263600972152315
1781099238743351300,2.183351318359375,-0.012784078249335288,-0.07971548788025974,-0.3792587717514485
1781099238768426200,2.20842626953125,0.2843523636758327,-0.29439576491490005,-0.41381767863109703
1781099238793502200,2.233502197265625,0.23510347186028957,-0.13807006169334055,-0.007688737004855647
1781099238818577400,2.258577392578125,0.007042904248833656,0.043601679708808655,0.15689117335090413
1781099238843653000,2.283653076171875,-0.029757424882054326,0.013561784623563288,0.16925501689417286
1781099238868728000,2.30872802734375,0.12671382429003714,-0.02475771689862013,0.13790275143557226
1781099238893803000,2.333802978515625,0.2731552623569965,-0.11449278675094246,0.06762101759659125
1781099238918879200,2.358879150390625,0.08908756572902202,-0.2250841821491718,-0.06467393129402771
1781099238943955000,2.383954833984375,-0.08465221363008021,-0.1762628680959344,-0.07794228592896833
1781099238969030000,2.40902978515625,0.0424199225783348,-0.1077029804803431,0.07450263033648953
1781099238994105900,2.43410595703125,0.11437164458930492,-0.05395546207129955,0.070278089710325
1781099239019180800,2.459180908203125,-0.029008652341365813,-0.07328048639670014,0.13663579110652208
1781099239044255700,2.484255859375,0.024020927056670187,-0.15981193790212272,0.03619396073557436
1781099239069332000,2.50933203125,0.32775136041939257,-0.3134232675984502,-0.04304696843549609
1781099239094407000,2.534406982421875,0.05010696994960308,-0.2879948118314147,-0.1554891427995637
1781099239119481900,2.55948193359375,0.030343700337409973,-0.16588059029132127,-0.07547613327745348
1781099239144558000,2.58455810546875,0.0012140519648790359,-0.08136325508728623,-0.06263648891597987
1781099239169633000,2.609633056640625,-0.044347675770521164,-0.14641411166861654,-0.054735141206905244
1781099239194708000,2.6347080078125,0.2969026331692934,-0.31175182725489137,-0.16919442754704503
1781099239219783700,2.65978369140625,0.09410159449875354,-0.18152984871342778,-0.14195002666553483
1781099239244858600,2.684858642578125,-0.19872166040241718,-0.07088292373567819,-0.06950725146830082
1781099239269933800,2.709933837890625,0.07917056734859942,-0.04898249596431851,-0.08083793430523946
1781099239295009800,2.735009765625,0.09743687640130519,-0.021110592567920684,-0.22172175651136786
1781099239320084700,2.760084716796875,0.0002028290957212448,-0.0057509647421538825,-0.3361667585978284
1781099239345159700,2.78515966796875,0.2220434992790222,-0.13480565306991338,-0.3448022658003494
1781099239370236000,2.81023583984375,0.4548182359308004,-0.3144664930410683,-0.41083888201601804
1781099239395310800,2.835310791015625,0.2412368600487709,-0.3014981442660093,-0.4206897198250517
1781099239420385800,2.8603857421875,0.3478594979465008,-0.2790904976248741,-0.48159474530592555
1781099239445461800,2.885461669921875,-0.06736614778637885,-0.721913029205054,-1.224238427850604
1781099239470537000,2.910536865234375,-1.5791571966588496,-0.42768063815832136,-1.7198796725571155
1781099239495612000,2.93561181640625,-0.5937082357048988,-0.5004173730671405,-1.2555645633541046
1781099239520687900,2.96068798828125,-0.16087211447954178,-0.41667920554205773,-0.6723555828969925
1781099239545762800,2.9857626953125,-0.2306394781887531,-0.434831678956747,-0.6940205214120447
1781099239570837800,3.010837646484375,-0.7801730566024779,-0.17721943816840646,-0.9252641029737889
1781099239595914000,3.0359140625,0.042490649726986886,-0.2622168119743466,-0.7335599201180041
1781099239620989000,3.060989013671875,-0.16065525685846804,0.008132745312154292,-0.06735664930567145
1781099239646063900,3.08606396484375,-0.07817921822369098,-0.36286622068136926,0.13642704372666775
1781099239671139800,3.111139892578125,0.16272797147929668,0.09641045596301555,0.889322947955504
1781099239696215000,3.136215087890625,0.22483751391172407,0.28898075412884355,0.44509117063190784
1781099239721290000,3.1612900390625,-0.12107903327345847,0.5025137608245015,0.756621792884171
1781099239746365000,3.186364990234375,0.20693127034306524,0.39049452458024025,0.13269498105887323
1781099239771440600,3.211440673828125,0.686275460243225,0.28272885412722826,-0.024742775057815015
1781099239796515800,3.236515869140625,0.43189679454863067,0.17650047624409199,0.3129840724635869
1781099239821590800,3.2615908203125,0.3165256175279617,-0.03834259013682604,0.1463901462711394
1781099239846666800,3.286666748046875,0.5794143374145031,0.22152210575342177,0.48535000618621704
1781099239871741700,3.31174169921875,0.5592103382974862,0.18639380148798226,0.3475436369303614
1781099239896816600,3.336816650390625,0.46187575322687624,0.2257718721523881,0.492921537419036
1781099239921266700,3.3612666015625,0.6925164004594088,0.3867527077034116,0.6671826372385025
1781099239946342000,3.386341796875,0.15786182674765586,0.36210429639816283,0.06642894000150262
1781099239971417900,3.41141796875,-0.09405483274757862,0.2989043283805251,-0.1662271387066692
1781099239996492800,3.436492919921875,-0.16133622485995291,0.3025523294940591,-0.1477140883512795
1781099240021567700,3.461567626953125,-0.0802998636394739,0.47387949475347996,0.1796478343591094
1781099240046644000,3.48664404296875,0.05969254441857338,0.1484852188542485,-0.29769144545942544
1781099240071719000,3.511718994140625,-0.10809972471296786,-0.05364449642598629,-0.34775866792052984
1781099240096793900,3.5367939453125,-0.12418635163903236,-0.30461306141614913,-0.36860776000805195
1781099240121869800,3.561869873046875,0.3182341750115156,-0.38390316349118947,-0.06283683379366993
1781099240146944800,3.58694482421875,0.38598260011374946,-0.33694238261282444,0.2798818671982735
1781099240172020000,3.61202001953125,0.20697803209424018,-0.22655951539874075,0.48632637693770225
1781099240197095000,3.637094970703125,-0.5317319642633199,-0.08826368212550878,0.22351415635347366
1781099240222171000,3.6621708984375,-1.5034066668868065,-0.011781330947577953,-0.341710364199616
1781099240247245800,3.687245849609375,-0.4741010285496711,-0.16449308145567773,0.028634613130893556
1781099240272321000,3.712321044921875,-0.8216285180628299,-0.4504854674234986,-1.0451997383657843
1781099240297397000,3.73739697265625,-0.34817747785449027,-0.4454439661249518,-0.8101542072378098
1781099240322472000,3.762471923828125,-0.18271335940957067,0.041318391077220434,-0.1598239571334794
1781099240347547000,3.787546875,-1.0923305420488119,0.033521453590691086,0.08787691129762679
1781099240372621800,3.812621826171875,-0.3818739957511425,0.08986702566891908,-0.03817991038840264
1781099240397698000,3.837697998046875,0.4473363557428121,0.141231302203238,0.13929595022648572
1781099240422773000,3.86277294921875,0.21163959416449069,0.09521014026254415,-1.3784060762554406
1781099240447848000,3.887847900390625,1.408064716938138,1.3787491906046867,-2.943975477066636
1781099240472924000,3.912923828125,0.6792518452167511,1.2478192099243401,-0.2967975653596222
1781099240497998800,3.937998779296875,2.2609815227121115,1.0616025185689328,1.9634239327654242
1781099240523073800,3.96307373046875,2.081652545043826,0.817430189590156,1.2528002132073044
1781099240548149800,3.988149658203125,-0.00797813927233219,-0.2963698414668441,1.751535332275927
1781099240573224700,4.013224609375,-1.1509545804530381,0.19958090758025646,0.012520385811850427
1781099240598300000,4.0382998046875,-0.2823597285538912,0.3740320500791073,-1.545755423925072
1781099240623374800,4.063374755859375,-0.7134849542081355,1.689984300509095,0.3717769646286964
1781099240648450800,4.088450927734375,1.1717261503249405,0.35197014813572164,0.04040967873446643
1781099240673525800,4.11352587890625,1.513715294933319,0.5365639144644141,-1.6250428956516085
1781099240698600700,4.1386005859375,-0.923562121361494,1.3721245117679237,-3.069918901506066
1781099240723677000,4.163677001953125,-1.2709656922340393,0.4260828475728631,-1.921678986839205
1781099240748752000,4.188751953125,1.3928735775470733,1.3985799724951387,1.4823920820392666
1781099240773826800,4.213826904296875,1.0232745414793492,1.2443418892025946,0.7085266011483967
1781099240798901800,4.23890185546875,1.2082605219960212,2.004980516512692,0.591480915044248
1781099240823978000,4.26397802734375,0.7032371164381503,2.4924504374623297,0.5813067270323634
1781099240849053000,4.289052978515625,0.14766951855719088,3.423494731272757,0.7554398896232247
1781099240874128000,4.3141279296875,0.7001958490461111,4.309922469243407,1.388877201387286
1781099240899203800,4.339203857421875,1.9631307950377463,4.776119885061681,2.3269465715289113
1781099240924279000,4.364279052734375,0.9674994627654552,1.5475067976370454,2.8259628456264734
1781099240949353200,4.389353271484375,-1.994545339477062,0.7532830038502812,0.6647188774734735
1781099240974429400,4.414429443359375,-3.1590204957604406,0.3566331715106964,-2.566203071415424
1781099240999504400,4.43950439453125,-0.7212263621151447,-2.716765388804674,-5.419642537510395
1781099241024579300,4.464579345703125,0.06215922679305076,-4.363407391193509,-1.7331711158066987
1781099241049654300,4.489654296875,-0.7341314363956452,-4.035367276960611,2.2398493028342723
1781099241074730500,4.51473046875,-3.624855215746164,-6.155818046954274,1.6366928553044795
1781099241099805400,4.539805419921875,-3.4028836126595734,-2.9917113339707253,-2.686294847217202
1781099241124880400,4.56488037109375,-1.691466940282285,-3.198859754195809,-2.6544448339700697
1781099241149956400,4.589956298828125,-2.2832085520893335,-1.7810422895282505,0.13492401875257493
1781099241175031300,4.61503125,-2.015295866560936,0.41012079687453806,0.799668030667305
1781099241200106500,4.6401064453125,-2.3513386699855325,-0.08795746572054922,3.4446108767986297
1781099241225182200,4.66518212890625,-3.1618308770060537,1.1392569822661578,4.327286276498437
1781099241250257200,4.690257080078125,-0.2825178417250514,1.8642177086040377,4.769861116927862
1781099241275332400,4.715332275390625,3.9492669103488325,0.927292247800529,3.2700188645243644
1781099241300408300,4.740408203125,23.289874881589412,-2.8192893592119215,-11.666477072429656
1781099241325483300,4.765483154296875,-0.2232201418429613,-1.252453883987665,-0.9201935217112303
1781099241350558200,4.79055810546875,2.6899904868647453,-2.70539585352838,-1.2458505401998758
1781099241375634400,4.815634521484375,-0.32905016805827614,-3.1435917482212186,3.6385347815304994
1781099241400709400,4.84070947265625,-5.976463934844732,-0.8505579676881432,1.5478946279108523
1781099241425784300,4.865784423828125,-0.9153890440389514,-0.9570777297332882,-0.16465046397447586
1781099241450860300,4.8908603515625,2.9785008470028638,-8.354770106732845,-2.1426298685759306
1781099241475935200,4.915935302734375,1.11887309653759,-5.573137401220202,-2.5903116767555474
1781099241501010400,4.941010498046875,-7.212043256399035,-2.7148300368279217,-0.24225743526816368
1781099241526086400,4.96608642578125,-2.041683522748947,4.141390195399523,-2.6858494415372607
1781099241551161300,4.991161376953125,3.5959991236180064,16.59360614186525,2.750917249253392
1781099241576237600,5.016237548828125,0.9628267947793007,6.348949924525618,1.5901929699361324
1781099241601312500,5.0413125,-0.6330319458335638,-2.191663071814179,-1.0338935506492852
1781099241626387500,5.066387451171875,0.7492775676012039,-1.6522452292233705,-0.7345873634696006
1781099241651463200,5.091463134765625,0.4895902741044759,0.45729427065551276,0.13363280989825724
1781099241676538000,5.1165380859375,0.43502515570223327,1.1438298431396483,0.9576508534461259
1781099241701613300,5.14161328125,-0.08799801692664623,-1.4984551819592713,-1.1179214949011802
1781099241726689300,5.166689208984375,-0.3903384572356939,-0.5624421598255634,0.45198272024393077
1781099241751764200,5.19176416015625,0.38862814618647096,-1.1628870103091,0.5771574983984231
1781099241776840400,5.21684033203125,-0.28207681995928285,-4.208635347154736,1.9029928449392317
1781099241801915400,5.241915283203125,1.6280734955191611,-5.792116252231597,0.17583002963662148
1781099241826990300,5.266990234375,1.2255582782775163,-6.764874658438563,1.5206599995046852
1781099241852066300,5.29206640625,1.238282150772214,-2.4518676671832798,3.100142190334201
1781099241877141200,5.317141357421875,0.26025778686106205,-4.336757284677028,2.3676132206991314
1781099241902217500,5.342217529296875,-0.7263385905623435,-5.402890140151977,0.8389901333607733
1781099241927292400,5.36729248046875,0.9007622605323791,-2.697876563939452,0.39833661638274787
1781099241952367900,5.392367919921875,-1.6494640740722417,2.1442074931561947,-0.9250931303210556
1781099241977442800,5.41744287109375,-0.4153232608884573,49.20846160547733,-6.941378057292104
1781099242002518000,5.44251806640625,-1.3348083420693873,5.945537466183304,6.298969211304187
1781099242027593700,5.46759375,0.4653191716790199,2.799536610993743,4.569285353091359
1781099242052669000,5.4926689453125,0.8175842111080884,-1.3262474344730377,1.9561727925933896
1781099242077744600,5.51774462890625,0.6659481270074844,-1.549459977531433,0.07900843558944762
1781099242102819800,5.54281982421875,-0.20175825161933897,-3.333451764515042,-2.9147812390252947
1781099242127894800,5.567894775390625,-1.0393944861531257,0.4075602256715297,0.6022621290385722
1781099242152970800,5.592970703125,-0.4817857378333807,0.44823184327781196,-0.3107334439925849
1781099242178045700,5.618045654296875,0.14675123466849327,-0.11503799954354763,0.09142850283198058
1781099242203122000,5.643121826171875,1.0339327136158942,-0.0004033201038837433,-1.2278037191167472
1781099242228196900,5.66819677734375,0.3525707443773746,0.3663490943610668,-0.9778169317055493
1781099242253272800,5.69327294921875,-0.39799569399058815,0.1877583678394556,-0.16761216332428155
1781099242278347800,5.71834765625,-0.005087678527832031,0.17052490896582603,-0.1309180710468441
1781099242303423000,5.743423095703125,0.2573497904598713,-0.09840133751928806,-0.14285137768574058
1781099242328499000,5.7684990234375,-0.02158522434234619,-0.300422623988986,-0.2924308215174824
1781099242353574000,5.793573974609375,-0.40918227391541,-0.5153904857933521,-0.7044353132467717
1781099242378649900,5.81864990234375,-0.32658407020568847,-0.8275140689700842,-0.309354118463397
1781099242403724800,5.843724853515625,0.2045066735446453,-0.5231318937003612,0.19926190475896
1781099242428800800,5.86880078125,0.3178770321369171,-0.1756196017563343,0.34663265956528483
1781099242453875700,5.893875732421875,0.032303017711639403,-0.0058253451526165,-0.04337430069372058
1781099242478950700,5.91895068359375,-0.1488145969390869,0.03369768694043159,-0.17513737119734285
1781099242504027000,5.94402685546875,-0.013874211573600768,0.26070260801911355,0.6164598734781146
1781099242529101800,5.969101806640625,0.3087678430080414,0.24544834026396273,0.48277124173939223
1781099242554177800,5.994177734375,0.490315665769577,0.21223756005764005,0.06000920915231108
1781099242579252700,6.019252685546875,0.08680150061845779,0.1673579693675041,-0.025805253190174696
1781099242604329000,6.044328857421875,-0.2937655041873455,-0.06947276467680931,-0.03627352877780795
1781099242629404000,6.06940380859375,-0.34014263995885846,-0.11117138724327087,-0.08509118956923484
1781099242654478800,6.094478759765625,-0.01260229194164276,-0.05942658695876598,-0.04058123590908944
1781099242679554800,6.119554931640625,0.0888707081079483,-0.04558043243587017,-0.06505012592896818
1781099242704630000,6.144630126953125,0.17891864330172538,-0.22302666509747504,-0.46003282877393065
1781099242729705700,6.169705810546875,0.2518371645182371,-0.24651333914697168,-0.7463762201365083
1781099242754780700,6.19478076171875,0.00722702864408493,-0.30135844353437424,-0.8683697379063814
1781099242779857000,6.21985693359375,0.20330138940811157,-0.781465434500575,-0.941800811754912
1781099242804931800,6.244931884765625,0.22898761932849881,-0.589026799890399,-0.5669210588052869
1781099242830006800,6.2700068359375,0.07871697836220264,-0.16814532035291194,-0.4037346760340035
1781099242855082800,6.295082763671875,-0.4092752128958702,-0.15835457870066166,-0.08475114395990967
1781099242880158000,6.320157958984375,-0.43768940647542476,-0.5184375984042883,0.10617672076113521
1781099242905234000,6.34523388671875,-0.08221125021874905,-0.5140998614609241,0.29700967374034226
1781099242930308900,6.370308837890625,0.1941413468748331,-0.038948447075486184,0.23719255309402942
1781099242955384600,6.395384521484375,0.09222352566719054,0.19872984370887278,-0.17429536741524934
1781099242980460500,6.42046044921875,-0.1049918218255043,-0.2736316476970911,-0.45608496793098746
1781099243005535500,6.445535400390625,-0.16990940741598606,-0.5968886193066835,-0.7876430271569639
1781099243030611500,6.470611572265625,0.03226736187636852,-0.3014373539894819,-0.6269643894229084
1781099243055686400,6.495686279296875,0.4045955306470394,0.7609025389432906,-0.3096907300066203
1781099243080762600,6.5207626953125,0.8818681749701499,1.5388549968868492,-0.19292875621467828
1781099243105837600,6.545837646484375,0.7160901682704687,0.5597650495707989,-0.40916882991194725
1781099243130912500,6.57091259765625,0.07583060927093029,-0.5148416197389364,-0.385662209052965
1781099243155988700,6.59598876953125,-0.6107523094862699,-0.8542752346456051,0.043116745736077426
1781099243181063700,6.621063720703125,-0.6770306620359421,-0.5283756395727396,0.3680740915227681
1781099243206139600,6.6461396484375,-0.06129121178686618,-0.10248480744063854,0.30534619799628854
1781099243231214600,6.671214599609375,0.28794658877551554,0.2559679807126522,0.18594357350245116
1781099243256289500,6.69628955078125,0.4123977288305759,0.4632026179164648,0.02086326674334705
1781099243281365800,6.72136572265625,0.17395371437072754,0.24210955123007297,-0.04915909464024007
1781099243306440700,6.746440673828125,-0.16651450428068637,-0.174857385212183,-0.06976378351263701
1781099243331516400,6.771516357421875,-0.13434300399422644,-0.2891279075145721,-0.13133191254474222
1781099243356591600,6.796591552734375,0.041653614380955696,-0.4071721031367779,-0.2708135215364396
1781099243381666600,6.82166650390625,0.18348960447907448,-0.36658582572638987,-0.34333887871690094
1781099243406742500,6.846742431640625,0.2707452786058187,-0.2500380061417818,-0.22160613077506422
1781099243431817500,6.8718173828125,0.16890402976572513,-0.09997487044632435,-0.005830751980096102
1781099243456893700,6.896893798828125,-0.0346644861459732,-0.1262578972160816,0.01722381426244974
1781099243481968600,6.92196875,-0.03844049755334854,-0.16201310120820997,0.08501089087463914
1781099243507043600,6.947043701171875,-0.03789280054271221,-0.09259469706714153,0.31283604229502376
1781099243532119600,6.97211962890625,-0.05795125370919704,-0.03263385710120201,0.44282019349262114
1781099243557194500,6.997194580078125,-0.09414017294347286,0.09059563220441341,0.5492866179153323
1781099243582270700,7.022270751953125,-0.10506956323683261,0.08224690605401992,0.5433715486526489
1781099243607345700,7.047345703125,-0.03972469214498996,0.07606909420192241,0.5768900796338915
1781099243632420600,7.072420654296875,0.07113456040918827,0.011076689809560775,0.4485458776630461
1781099243657496600,7.09749658203125,0.14962942045331,-0.03717500766217709,0.20919811929650603
1781099243682571800,7.12257177734375,0.06804886935353278,-0.07685761423110961,0.03815495861023664
1781099243707647500,7.1476474609375,-0.06487023931741714,-0.14409692076742647,-0.015527458673343061
1781099243732722400,7.172722412109375,-0.06677870328724383,-0.15188509042561055,-0.12725691819079218
1781099243757797400,7.19779736328125,0.03464519692361354,-0.2209586266517639,-0.21554617314897476
1781099243782873600,7.22287353515625,0.07656944493949412,-0.22075287494659424,-0.3019042408488691
1781099243807948500,7.247948486328125,0.14650047477781772,-0.12884089944660662,-0.39327312244810164
1781099243833024500,7.2730244140625,0.12761983321905135,-0.07524024216234683,-0.3867713393386453
1781099243858099700,7.298099609375,0.005503858113288879,0.0017313538372516631,-0.23956768472753465
1781099243883174700,7.323174560546875,0.06260697056055069,-0.1475777486205101,0.08980945026278496
1781099243908250600,7.348250732421875,0.030745851397514342,-0.05791209074258804,-0.10940861535444855
1781099243933325600,7.37332568359375,0.19100246432721613,-0.32602760536670683,-0.06288732187189161
1781099243958400500,7.398400390625,0.18408464776277542,0.02694353650510311,-0.24475151710622012
1781099243983476500,7.4234765625,0.2428390345484018,0.238295545899868,0.059766194176673886
1781099244008551400,7.448551513671875,-0.11768237657248973,-0.2596001997351646,0.322694003964588
1781099244033627400,7.47362744140625,-0.013335866913199424,-0.19988193635344503,0.20327990822866557
1781099244058702600,7.49870263671875,-0.14686404739320277,-0.39587563309669493,-0.5531087334867566
1781099244083777500,7.523777587890625,-0.14479951607882977,-0.4073614882290363,-0.35908619068600234
1781099244108853200,7.548853271484375,-0.2789315076708794,-0.20247896710932253,0.3817781341612339
1781099244133928400,7.573928466796875,-0.17534779907763004,-0.34635143147110936,-0.04787058919966221
1781099244159004400,7.59900439453125,-0.05623392839729786,-0.09567395838201045,0.7153978020921349
1781099244184079400,7.624079345703125,0.07793196546435356,0.21673954765200615,-0.3379045787084847
1781099244209154300,7.649154296875,0.1000198786318302,0.08519874159693717,-0.2729498029127717
1781099244234230500,7.67423046875,0.2346317626953125,0.0633861382395029,-1.1109656113486737
1781099244259305500,7.699305419921875,0.36747955969572066,-0.4067033165812492,-0.31121487083397803
1781099244284381400,7.72438134765625,0.3037953152924776,-0.6266162335723638,-0.6360206062555313
1781099244309456400,7.749456298828125,-0.18368308122456073,-0.4962906485259533,0.9725259856905788
1781099244334531600,7.774531494140625,-0.2835650126904249,-0.1608013873308897,1.0908397920344024
1781099244359607600,7.799607666015625,-0.00907353329360485,0.5107061273694038,0.9408129697613418
1781099244384682500,7.8246826171875,0.039297991165518756,0.2990881605148315,0.5568211050733923
1781099244409757400,7.84975732421875,0.2858089922249317,-0.06826221984326838,-0.5253237046562135
1781099244434833400,7.87483349609375,-0.0014969605594873428,-0.11821136888265608,-0.16566665527969598
1781099244459908600,7.89990869140625,0.06337737041115761,0.0502455016374588,0.7757127161927521
1781099244484984300,7.924984375,0.40930268542468545,0.12248422389626502,0.2820190984226763
1781099244510059300,7.950059326171875,0.36096506323516364,0.04834755906164646,-1.3075906647980213
1781099244535134500,7.975134521484375,-0.06180559104979038,-0.03810147485733032,-1.414908883744478
1781099244560210400,8.00021044921875,-0.25415362476706505,0.28944004220366476,-1.1565477242849767
1781099244585285400,8.025285400390626,-0.11999942134320735,0.30985330015718937,-1.2373342023976146
1781099244610361600,8.050361572265626,-0.1533849735945463,-0.13376958802044392,0.17901611232683062
1781099244635436500,8.0754365234375,-0.15424948146939277,-0.08804770128726959,0.8446329615533351
1781099244660511500,8.100511474609375,-0.4216133009433746,0.036830139747262,0.5440289896480739
1781099244685587500,8.12558740234375,-0.5530833798497915,-0.009448796346783637,0.6155811909474432
1781099244710662400,8.150662353515624,-0.44293139878213406,0.4566530501425266,0.8177415936268866
1781099244735737600,8.175737548828126,-0.3804197052896023,0.28743104046881196,0.7745753827258944
1781099244760813600,8.2008134765625,-0.3208843972593546,-0.051420975157618516,0.46829263453185554
1781099244785888500,8.225888427734375,-0.3207528798341751,0.11695990751683712,0.6950565864615142
1781099244810964200,8.250964111328125,-0.2537485510975122,0.27030104196965693,-0.004873158994317055
1781099244836039400,8.276039306640625,-0.049750411596894265,-0.3083972561299801,-0.9270758285708725
1781099244861114600,8.301114501953125,0.2898696657925844,-0.7293868722170591,-1.2959884898096323
1781099244886190300,8.3261904296875,0.08679039470255374,-0.15545768821537495,-0.6547597935169935
1781099244911265300,8.351265380859376,-0.28119828355908394,0.013857844960689545,-0.07037132095173002
1781099244936341500,8.376341552734376,-0.17345219458937644,0.15874328575730323,-0.5624737240076064
1781099244961416700,8.401416748046875,0.302339855787158,0.13017244031131267,-0.5993779519043863
1781099244986491600,8.42649169921875,0.2757838572949171,-0.04122925148904323,0.32347455988302826
1781099245011567600,8.451567626953125,-0.13328852650523185,-0.25550387033224103,0.43397374695315954
1781099245036642600,8.476642578125,-0.2469663436114788,-0.17880349248945712,-0.10679331828951835
1781099245061717500,8.501717529296876,0.129800684389472,-0.057252165529131885,-0.6089478904128074
1781099245086793700,8.526793701171876,0.0925350758343935,-0.027750176712870597,0.2114088541485369
1781099245111868700,8.55186865234375,-0.09696575175821781,-0.5139999082177877,0.19121800677403805
1781099245136944600,8.576944580078125,-0.22740414952933788,-0.7200368600696325,-0.256879396469146
1781099245162019800,8.602019775390625,-0.21060615946352482,-0.06658113488852978,-0.3211953629046678
1781099245187094800,8.6270947265625,-0.05130757791101932,0.23627251563966273,-0.865494401665777
1781099245212170500,8.65217041015625,0.10290098702609539,-0.06002805998325347,-0.5262091091886163
1781099245237245400,8.677245361328126,0.19664836125969887,-0.25726035861074925,-0.41559973974227904
1781099245262320600,8.702320556640625,0.032121231403946876,-0.5023416191279888,0.14378580899164078
1781099245287396600,8.727396728515625,0.1192301905363798,-0.42711482096910475,-0.4661217202335596
1781099245312471600,8.752471435546875,0.7136503739029169,-0.15558219137787818,0.26534765734598037
1781099245337547500,8.777547607421875,0.859573925575614,-0.12480243771076202,0.21242109993100164
1781099245362622700,8.802622802734374,0.22907938926517962,0.015886135917901993,0.030210721607506274
1781099245387697700,8.82769775390625,-0.2101005480289459,-0.24045886141359804,0.23711978011876345
1781099245412773600,8.852773681640626,-0.07473521524965762,-0.4339858757823705,-0.4854935063101351
1781099245437848600,8.8778486328125,0.12033669047355651,-0.10628887589871883,-0.36580446609035133
1781099245462923500,8.902923583984375,0.23869243626296519,0.18959493561685084,0.42578970984518527
1781099245487999700,8.927999755859375,0.4690945985645055,0.11736147405505179,-0.23040347747579215
1781099245513074700,8.95307470703125,0.11826572941839694,-0.1899281130939722,-0.8990478578299284
1781099245538150700,8.978150634765624,-0.10388999806344508,-0.14476502928733825,-0.39170258519574996
1781099245563225600,9.0032255859375,-0.25657120730280875,0.3899555953979492,-0.6931511912316084
1781099245588300800,9.02830078125,-0.17033610839545726,0.034766777476668356,-0.183852300311625
1781099245613376500,9.05337646484375,-0.03245908505618572,-0.09625731122791767,0.8266784949287772
1781099245638451500,9.078451416015625,-0.09781973823904991,-0.09093933107554912,0.2881948644481599
1781099245663526700,9.103526611328125,-0.21175766758620737,0.17973755846917627,0.1185246726155281
1781099245688602600,9.1286025390625,0.049692543929815286,0.015078326666355132,-1.2057948625348507
1781099245713677600,9.153677490234376,-0.1540612654209137,-0.5201163452714681,-0.30402649369984863
1781099245738753500,9.17875341796875,-0.17420798139274118,-0.48640930598080157,-0.6783752085126936
1781099245763828500,9.203828369140625,-0.19614216530323028,-0.7542249608755112,0.43693405806347724
1781099245788903700,9.228903564453125,-0.005497428372502326,-0.5610942523479462,-0.036782793474197384
1781099245813979600,9.253979736328125,0.1740425616979599,-0.815270673468709,-0.20857260780930517
1781099245839054600,9.2790546875,0.2952273934334516,-0.7080944933414459,-0.02642243524044752
1781099245864130800,9.304130859375,0.8775742771685123,-0.32667759370803834,-0.953784533406794
1781099245889205800,9.329205810546876,0.8412176001518964,-0.13380349029004573,-0.7762567599415778
1781099245914280700,9.35428076171875,0.4932973119288683,-0.355555897668004,-1.5287829540751874
1781099245939356700,9.379356689453125,0.12947042952179907,-0.4683312129765749,-1.5325915525779128
1781099245964432000,9.404431884765625,0.03394961587488651,-0.5362585017770528,-0.09390314931720495
1781099245989506800,9.4295068359375,0.2897954315125942,-0.49322833834588525,-0.13390008253231644
1781099246014582500,9.45458251953125,0.473871895968914,-0.7612526675552129,-0.821157539550215
1781099246039657500,9.479657470703126,0.24882570774257182,-0.720220399942994,-0.6724564859881996
1781099246064733700,9.504733642578126,0.07604103715121746,-0.06890285583436488,-0.5149570628121495
1781099246089808600,9.52980859375,0.3052992901146412,0.037136429217457766,-0.10802622108533978
1781099246114883600,9.554883544921875,0.6865262201339006,-0.6189315242886543,-0.044775253532826895
1781099246139959800,9.579959716796875,0.5211749144136906,-0.7146797169506549,-0.5822453230567276
1781099246165034800,9.60503466796875,0.31304712776243687,-0.7565414211243391,-0.4225419600956142
1781099246190109700,9.630109619140624,0.5060696997404098,-0.8990408435672521,-0.6576780190512538
1781099246215185700,9.655185546875,0.924824688643217,-1.0462526814848183,-1.9281003981888294
1781099246240260600,9.680260498046875,1.002916228583455,-1.204536533036828,-1.9515657371893524
1781099246265336800,9.7053369140625,0.6665566142946482,-1.125057338130474,-1.3821809186190366
1781099246290411800,9.730411865234375,0.658100920638442,-1.0079285037875174,-1.476071354585141
1781099246315486700,9.75548681640625,0.8147299907207488,-0.9173813868999481,-2.2942336578421294
1781099246340563000,9.78056298828125,0.6597972031623125,-0.9642547817558049,-1.947678812753409
1781099246365638000,9.805637939453124,0.5765753145962953,-0.9659177465319633,-1.1707415232017635
1781099246390712800,9.830712890625,0.8454986384719609,-1.0116378796994685,-0.904709682983905
1781099246415788500,9.85578857421875,0.8865151239931582,-0.7750047140538692,-1.5001063101671634
1781099246440863500,9.880863525390625,0.980071944090724,-0.883369227182865,-1.5988422864682972
1781099246465939700,9.905939697265625,0.9139379684478044,-1.1602899795532227,-0.6337519306711852
1781099246491014700,9.9310146484375,0.7897937023848295,-1.2294757439821957,-1.1466028149843215
1781099246516089600,9.956089599609374,0.724062462323904,-1.1993068156898021,-1.5932625866398213
1781099246541165600,9.98116552734375,0.5830155767768621,-1.2667144645303487,-1.8247184957779943
1781099246566240800,10.00624072265625,0.6373802041709423,-1.4357026654481886,-1.600906087130308
1781099246591316700,10.031316650390625,0.8012468242913484,-1.3580606228411196,-1.6012806195311247
1781099246616391700,10.0563916015625,0.967678910985589,-1.3136042259991167,-1.8784364958316087
1781099246641466600,10.081466552734375,1.1954261748641728,-1.3053455162197352,-1.9260734224058687
1781099246666542800,10.10654296875,0.9298924934267997,-1.2399667428582906,-1.4097377647168934
1781099246691617800,10.13161767578125,0.5626847364097833,-1.2063222474098205,-1.2817517285339532
1781099246716693800,10.15669384765625,0.5580903943568468,-1.1991741292208433,-0.9987509255975484
1781099246741768700,10.181768798828125,0.8286170617759228,-1.0184382073640823,-1.1737407050177455
1781099246766844000,10.206843994140625,1.1952519873410463,-1.025514429360628,-1.5594199382707477
1781099246791919600,10.231919677734375,1.205758183786273,-1.1764268753618001,-1.5561054068952798
1781099246816994600,10.25699462890625,0.9009042993515729,-1.093143027475476,-1.4253846850514411
1781099246842070800,10.28207080078125,0.9620750996291637,-1.0872639063090086,-1.3666440345302224
1781099246867145700,10.307145751953126,1.703044857612252,-0.933196795669198,-1.3990785696670411
1781099246892220700,10.332220703125,1.6157786620914936,-0.3847895909368992,-1.4131237538933754
1781099246917296600,10.357296630859375,1.662196129873395,-0.014493804776668548,-1.93244456487298
1781099246942371600,10.38237158203125,1.6914245624452828,-0.18619594082832336,-2.286819728323817
1781099246967445800,10.40744580078125,2.455532034909725,-1.0619897643208502,-3.258555513484776
1781099246992522000,10.43252197265625,2.1190771435528992,-1.4358353519171476,-3.7325121651276945
1781099247017597000,10.457596923828126,1.3862784170657396,-2.014928202292323,-4.27424033048749
1781099247042673000,10.4826728515625,0.07302022802531719,-2.390391161957383,-3.28016294965893
1781099247067748000,10.507748046875,-1.1195996572464704,-2.5564932860448955,-2.576833771023154
1781099247092823000,10.532822998046875,-0.8823919065833091,-2.5432658479422328,-1.4431775313735007
1781099247117899000,10.55789892578125,-0.738659727475047,-2.8198393943101165,0.5439899728119373
1781099247142974000,10.582973876953124,-0.9700935709118842,-2.345923366938531,1.0345341866403817
1781099247168050200,10.60805029296875,-1.7529963447391985,-1.9328065300531685,0.2725625571608543
1781099247193125000,10.633125,-2.2082126400768756,-2.6317636310845614,-0.1437540986791253
1781099247218200000,10.658199951171875,-2.4008581954360007,-3.502708845502138,-0.5961591359883547
1781099247243275800,10.68327587890625,-2.0303075577318666,-3.461391038946807,-0.8123600467190146
1781099247268351000,10.70835107421875,-1.0417851806819438,-3.4264088651537894,0.1966203042089939
1781099247293427000,10.733427001953125,-0.8445207333505154,-3.168995946329832,-0.3941770124852657
1781099247318502000,10.758501953125,-0.778140089470148,-2.5690078997030854,-0.7264893972098827
1781099247343576800,10.783576904296876,-0.16105156269967555,-2.230752096404135,-1.4989838820084929
1781099247368653000,10.808653076171876,1.9858289490580558,-1.8729658093355595,-3.559427342545986
1781099247393728000,10.83372802734375,3.1141520109862086,0.17917422549799084,-3.419169561550021
1781099247418804000,10.858803955078125,0.423688353651762,-1.7546486419908702,0.47859132570624346
1781099247443879000,10.88387890625,-0.21192893249988554,-2.588745742613077,0.22294687785953282
1781099247468953900,10.908953857421874,-0.9346516706526279,-1.737421612858027,-0.7890887689858674
1781099247494030000,10.934030029296874,-0.697534520882368,-1.4336631224445997,-1.0738771859914065
1781099247519105000,10.95910498046875,0.3910580036818981,-1.6596167809046805,-1.014602282463014
1781099247544181000,10.984180908203125,0.8243558972001075,-1.3263758831582964,-1.1200383409246801
1781099247569256200,11.009256103515625,0.22236732440590856,-1.2087915601328014,-1.1325137916162609
1781099247594331100,11.0343310546875,-0.40087212620973584,-1.5692676708072424,-1.0489122560828923
1781099247619406800,11.05940673828125,-0.5495534521579742,-1.8603838295295834,-0.8247004728540778
1781099247644481800,11.084481689453124,-0.11931260812282561,-1.5905010129719972,-0.9455828145116567
1781099247669558000,11.10955810546875,0.1781207709223032,-0.9070385643228888,-0.9905556364431977
1781099247694633000,11.134633056640626,-0.23909400280117987,-0.7719999792799354,-0.6492275860920548
1781099247719708000,11.1597080078125,-0.5403893179714679,-1.277637132821977,-0.4284323333084583
1781099247744784000,11.184783935546875,-0.7737976763516664,-1.4683666254267096,-0.6289888079226017
1781099247769859000,11.209859130859375,-0.33520226094722744,-1.545648018027842,-0.4472653363332152
1781099247794935000,11.23493505859375,-0.2908586768299341,-1.1600614314943551,-0.4902399701848626
1781099247820010000,11.260010009765624,-0.409700744831562,-0.22949469206780193,-0.19844664285331964
1781099247845086000,11.2850859375,-1.010525534543395,0.26582886499166486,0.5493801414176821
1781099247870161200,11.3101611328125,-0.37680677548944946,0.7546551689863205,0.500153461433947
1781099247895236000,11.335236083984375,0.49207741474509237,1.4767308414071798,0.11742080302685498
1781099247920311800,11.360311767578125,1.7862223225146532,2.2229893534481526,0.894969648605585
1781099247945387000,11.385386962890625,0.7640542809724807,2.4123434660464524,1.0064213140949607
1781099247970463700,11.410463623046875,-0.6814765355288982,1.4774506801143288,0.681139266398549
1781099247995539000,11.4355390625,-0.5606792418062687,0.8813470737054944,-0.30932401558607814
1781099248020614000,11.46061376953125,0.6678431469738483,0.6148004158332944,0.49546501135677096
1781099248045689900,11.48568994140625,1.0031728336930275,0.44347091248631476,-0.03262216666340828
1781099248070764800,11.510764892578125,-0.29950083296895025,0.362956237052381,-0.8471952132567763
1781099248095841000,11.535841064453125,-0.6577893704712391,-0.12528963670581578,-0.3971624580368399
1781099248120916000,11.560916015625,-0.322882877600193,-0.8510188631981611,-0.7489394216880202
1781099248145991000,11.585990966796874,0.3741542151540518,-0.3207049490392208,-0.830899327494204
1781099248171067000,11.61106689453125,0.24651859984397886,0.6291817001461982,-0.18313479969203472
1781099248196141800,11.636141845703126,-0.4957675014346838,0.16840923198610544,0.32205548686534163
1781099248221217800,11.6612177734375,-1.1719956149160862,-0.14034867414981125,0.5975844926163554
1781099248246292700,11.686292724609375,-0.2973988922536373,0.41227439471185207,0.7116717673063278
1781099248271368700,11.71136865234375,1.0810399172276257,-0.24949177043586968,0.5973039221093058
1781099248296444000,11.73644384765625,0.978119056457281,-0.3930082609668374,0.07596037313044071
1781099248321518800,11.761518798828124,0.8921417317032814,-1.009926984128356,-1.264471946300566
1781099248346594800,11.7865947265625,1.2631167322993277,-1.042773314936459,-1.5954299938067793
1781099248371669800,11.811669677734375,0.5534551357716322,-1.9374846048668026,-1.4756512294769286
1781099248396746000,11.83674609375,-0.12235796716809272,-2.554679806882143,-2.9357781420856712
1781099248421821000,11.861821044921875,-2.1127374191373587,-3.584972410430014,-3.9947883060738443
1781099248446895900,11.886895751953125,-3.0311434729099274,-4.107698353677987,-2.5041467204749583
1781099248471971800,11.911971923828125,-1.3195073125630616,-2.355494182229787,-0.8112389337345958
1781099248497047000,11.937047119140624,-0.9803507610321044,-1.1034098622068762,-0.8658306478828192
1781099248522122800,11.962122802734376,2.05669170678854,-0.15583178222477434,-0.6363944080039858
1781099248547197700,11.98719775390625,1.648238331669569,-0.5279162053674459,-0.28961890590190886
1781099248572273700,12.012273681640625,0.27499825987517834,-0.7703747161656618,-0.5306771945133805
1781099248597348900,12.037348876953125,-0.9436509696662425,-1.107222113971412,0.19328765265494585
1781099248622423800,12.062423828125,-1.2991840709805489,-0.04851180971264839,0.005349544334411621
1781099248647499800,12.087499755859374,-0.3737345284372568,-0.6659235770881176,0.23059710035175085
1781099248672574700,12.11257470703125,0.9496715451300144,0.002860357867181301,-0.7475210793226957
1781099248697651000,12.13765087890625,0.2015524999141693,-0.8836690869122743,-1.3478183380290865
1781099248722726000,12.162725830078125,0.06983809085786342,-1.4950436199501156,-1.2262202493175864
1781099248747801900,12.1878017578125,0.3224444861829281,-1.1122849503189325,-1.6046803449720144
1781099248772876800,12.212876708984375,-0.5797194578409195,-1.8353136856809258,-0.7476561038792133
1781099248797952000,12.237951904296875,0.1116097786605358,-0.8266095213457941,-0.8321785536497831
1781099248823028000,12.263028076171874,-0.5568260735094547,-0.9371645302563906,-0.7302376438274979
1781099248848103000,12.28810302734375,0.45655952664017674,-0.5266778957441449,-1.015285004030168
1781099248873178600,12.3131787109375,-0.33800855053961276,-1.1791533777162433,-0.7072349539026618
1781099248898253800,12.33825390625,0.4579121102929115,-1.2703577894687652,-1.8024857673123478
1781099248923329800,12.363329833984375,0.8399977029681205,-1.4108382733047007,-0.24963848543018102
1781099248948404000,12.388404052734375,0.11728665525317192,-1.455771347747743,-0.9846753462329506
1781099248973479000,12.41347900390625,-0.5774550200402736,-1.7130349212288856,-1.0566372973769902
1781099248998555100,12.43855517578125,-0.24461072039604184,-0.9486176521629095,0.14979250206053257
1781099249023630000,12.463630126953126,0.1784253068268299,-1.0522878699958325,-1.357082717719674
1781099249048706000,12.4887060546875,1.0641513262689113,-1.0683195518642663,-1.6138561695963143
1781099249073781000,12.513781005859375,0.12548515927791595,-1.2523097993418573,-0.5636769623175263
1781099249098857200,12.538857177734375,-0.8762193554282188,-1.3304714819088577,-1.3088307279869913
1781099249123932200,12.56393212890625,-0.42671266990900036,-1.1674749226212502,-0.8606178816705942
1781099249149007000,12.589007080078124,0.15063713619112967,-0.9005556320443749,-0.07102846968621015
1781099249174083000,12.6140830078125,0.0986217022716999,-1.4910402295276521,-1.1185209220990537
1781099249199158300,12.639158203125,-0.16184475890398026,-1.5622472706511616,-1.3623489676848053
1781099249224234000,12.66423388671875,0.2713905907720327,-0.9622805590733885,-1.3263739834621548
1781099249249309200,12.68930908203125,-0.4212988281667232,-0.9858345992706715,-1.4813582089468835
1781099249274385000,12.714385009765625,-0.27606968849897384,-1.418423759997636,-0.9005719986572861
1781099249299460000,12.739460205078124,0.38320086044073104,-1.6510818845324218,-0.6262766263544559
1781099249324536000,12.7645361328125,0.3888783215552568,-1.053180142660439,-0.6385530473425984
1781099249349611000,12.789611083984376,0.09976268900036811,-1.5381994555875658,-1.6432874312639236
1781099249374686000,12.81468603515625,0.0832592979669571,-1.0398452986605464,-1.635886215096712
1781099249399762200,12.83976220703125,-0.2766805138736963,-0.8138304115325212,-0.7370207280963659
1781099249424837000,12.864837158203125,-0.6736369279444218,-1.0848914780892431,0.059418111391365526
1781099249449913000,12.8899130859375,0.13945873957276345,-0.8651286370933056,-0.9523173834636807
1781099249474988000,12.914988037109374,0.12452362076938152,-1.21204880836308,-0.9683411742866038
1781099249500064300,12.940064208984374,0.10805530104935168,-1.3092135898247361,-0.701766459363699
1781099249525139200,12.96513916015625,-1.012556748110056,-1.6964480896957217,-0.881674113702774
1781099249550214100,12.990214111328125,-0.3602396715700626,-1.4236679442614315,-1.5038096947297452
1781099249575290000,13.0152900390625,0.616615648561716,-0.6306228388652205,-0.8389315350413322
1781099249600365000,13.040364990234375,0.5780845501154661,-0.7141311431571841,-1.0231903703272343
1781099249625441000,13.06544091796875,-0.5531622903048992,-1.5931351608678697,-0.5810708724498749
1781099249650516000,13.090515869140624,-0.38494741184711456,-0.6662190529033541,-0.8782713195219636
1781099249675592200,13.11559228515625,-0.05709609818458557,-0.6380649715647101,-1.2332049936383962
1781099249700667100,13.140667236328126,0.4710848955988884,-0.8272425585523248,-0.25066987430453297
1781099249725743000,13.1657431640625,-0.28592122042775153,-0.7965707953043282,-0.5024304664552212
1781099249750818000,13.190818115234375,-0.44193595800399776,-0.8347444586150348,-0.34686581073403355
1781099249775893000,13.21589306640625,-0.10799451077282428,-1.3148770224139095,-0.9603297172665596
1781099249800969200,13.24096923828125,-0.02134557036757469,-1.2417102255247532,-1.772125115840137
1781099249826044200,13.266044189453124,0.015512041908502578,-1.423023801138997,-1.886449706417322
1781099249851119900,13.291119873046876,-0.4320797499001026,-1.2204229612156747,-1.1640560540884732
1781099249876195000,13.316195068359375,0.15477321308255196,-0.8013450239688158,-0.614970803964138
1781099249901271000,13.34127099609375,0.43828971045613285,-0.6530829463459551,-0.6411322501808404
1781099249926346000,13.366345947265625,0.4304313981711864,-1.1082726459376513,-0.8076637055963277
1781099249951422500,13.39142236328125,0.21892215238809584,-0.4769064413592219,-0.9720537650689483
1781099249976497400,13.416497314453125,-0.44624622241854667,-0.8394812778785824,-0.8520990596503019
1781099250001572600,13.441572509765624,-0.36204233707785605,-0.9401935226887465,-0.513356057356298
1781099250026648600,13.466648681640624,-0.44430210261344905,-1.3604720678970217,-0.41033407429903745
1781099250051723500,13.4917236328125,-0.5183721319526433,-1.2347107220262288,-0.6596732845216989
1781099250076799500,13.516799560546875,-0.27182605957984923,-0.9842626737788319,-0.4174284164741635
1781099250101874700,13.541874755859375,-0.005724807387590408,-0.908552476017177,-0.5028881470948457
1781099250126950400,13.566950439453125,-0.26110709716677666,-1.5601213645383716,-1.0141375875607133
1781099250152025300,13.592025390625,-0.5962532440125942,-1.1650500335618852,-1.0013727985337375
1781099250177101600,13.6171015625,-0.7283809100449085,-0.6369745459794998,-0.30279461381733414
1781099250202176500,13.642176513671876,-0.2934311576664448,-0.5642419027239084,-0.38641660761684177
1781099250227251500,13.66725146484375,0.1298047760426998,-0.29479864662736655,0.09952011241614818
1781099250252327400,13.692327392578125,0.31116321371197697,-0.1872825670212507,-0.4627519515395164
1781099250277402400,13.71740234375,-0.851289496833086,-0.23996873980909583,0.1311912619650364
1781099250302478600,13.742478515625,-0.766478293249011,0.05982756897509098,0.44108255604505536
1781099250327553500,13.767553466796874,-0.34785131464004515,0.4305377811551094,0.21667261989563702
1781099250352629500,13.79262939453125,0.3371498878836632,0.813907276161015,0.29336832156330345
1781099250377704400,13.817704345703126,0.969293944966793,1.4983113895744085,0.2153255892008543
1781099250402780400,13.842780517578126,0.558144170370698,1.4792173975259064,-0.12360387557595967
1781099250427855600,13.867855712890625,-0.06207797825038433,1.3069301550626753,0.0904369345113635
1781099250452931300,13.892931396484375,-0.4416472041904926,1.5684683371230959,0.5033151403352618
1781099250478006500,13.918006591796875,-0.4997568633317947,0.5478966248616576,-0.1045470006674528
1781099250503081500,13.94308154296875,-0.19731062456071374,0.48637891084253787,-0.31480303151905537
1781099250528157400,13.968157470703124,0.6937550023436546,0.06050386080145836,0.39903263582289217
1781099250553232400,13.993232421875,0.612386048167944,0.34733138241916894,0.05626490805745125
1781099250578308600,14.01830859375,-0.010915361768007278,0.46947541457563635,0.018458909015357492
1781099250603383600,14.043383544921875,-0.5066635739803313,0.3770297705903649,0.44666561687439676
1781099250628459500,14.06845947265625,-0.6866191591143608,-0.159739603318274,0.4773647065207362
1781099250653534500,14.093534423828125,0.28777883099317547,0.16964140412956474,0.04699205279946327
1781099250678610700,14.118610595703124,0.8338134613752365,0.6398582847222686,-0.31551468691974877
1781099250703685600,14.143685546875,0.20202187099158764,0.5250622772410511,1.0070856232225895
1781099250728761300,14.16876123046875,-0.5440823272705078,-0.10098287844508885,0.7632315664127468
1781099250753836300,14.193836181640625,-0.4349298786342144,-0.3427820485517382,0.1601715649947524
1781099250778912500,14.21891259765625,0.5858639519453048,-0.39363574521541594,0.758712335422635
1781099250803987500,14.243987548828125,1.355462423041463,-0.331881592091918,0.24164018015265462
1781099250829062400,14.2690625,0.8019827373504638,-0.798740978950262,-1.8541849748894572
1781099250854138600,14.294138671875,-0.3683943364530802,-1.5864488149717448,-1.8034154493778942
1781099250879213600,14.319213623046876,-1.42926591039896,-1.7679264951065181,-0.12628390844017268
1781099250904289500,14.34428955078125,-1.8496809414684772,-1.1319304387703537,0.20335925707519054
1781099250929364500,14.369364501953125,-0.22880641754269598,-0.5672957373365759,0.617950988818705
1781099250954440400,14.3944404296875,0.7974643831431866,-0.06568915448486805,1.1335998332872985
1781099250979515600,14.419515625,1.6639409277141093,-0.4173629500225186,-0.7483008315235375
1781099251004591400,14.44459130859375,0.66614277279675,-0.557043515652418,-1.1920561139091848
1781099251029666300,14.469666259765624,-0.5081570274084806,-0.6153726627632975,0.21057138041108844
1781099251054742500,14.494742431640624,-0.7280348730862141,-0.29841975973397494,-0.38414953946769237
1781099251079817500,14.5198173828125,0.2688432443767786,-0.12929331938922403,0.5778975031107664
1781099251104893400,14.5448935546875,1.2513508911818265,-0.37938568606674666,1.090110820172727
1781099251129968400,14.569968505859375,-0.013731588232517241,-1.4389754035085438,-0.47820349543243645
1781099251155043300,14.595043212890625,-0.21733751354515551,-1.2299480376690626,-0.6103636024296283
1781099251180119600,14.62011962890625,0.49174599083364007,-0.9065811759442091,-0.5219651880085467
1781099251205194500,14.645194580078124,0.6363853479146957,-0.7937345489650964,-1.4408710079967975
1781099251230270500,14.6702705078125,0.6051935063153505,-1.7619488820016382,-0.189570385697484
1781099251255345400,14.695345458984375,1.1519745711505411,-0.946468072913587,-0.3833493290007114
1781099251280421400,14.72042138671875,0.015606734454631805,-0.36258185078203675,0.6878545461282134
1781099251305496600,14.74549658203125,-0.2578852125108242,-1.1184759139135478,0.6586021481588482
1781099251330572300,14.770572265625,-0.45680619487762447,-1.8332134985312818,-0.1614811862885952
1781099251355647500,14.7956474609375,0.506507506635785,-0.8786965591967105,1.0467945332765578
1781099251380723500,14.820723388671874,0.5223012880951166,-0.39397476791143415,0.4617804761588573
1781099251405798400,14.84579833984375,0.3584183013617992,-0.873229233701527,-0.43812399850040673
1781099251430874400,14.870874267578126,0.20899930878877637,-1.3606962320417164,-0.41506256412565706
1781099251455949600,14.895949462890625,0.14011515765488147,-0.4724702124774456,0.1836249212965369
1781099251481025500,14.921025634765625,0.31333120540082454,-0.9245917566701769,-0.5720712811753154
1781099251506100500,14.9461005859375,0.6854056916713714,-1.3253271047577262,-0.20773469568043945
1781099251531176400,14.971176513671875,-0.2038186912804842,-1.5533639992326498,-0.15308599064797163
1781099251556251600,14.996251708984374,-0.07173311082422733,-0.9746481654763222,-0.00956628524661064
1781099251581326600,15.02132666015625,1.555067880541086,-0.25361820271611213,-0.7506479791715741
1781099251606402300,15.04640234375,0.8699585414677857,-1.6984338566854595,-0.8080933291852473
1781099251631477200,15.071477294921875,0.5870557920783758,-1.0571753497764467,0.49452743824571366
1781099251656553500,15.096553466796875,-0.5078986687332392,-0.20529197870343924,-0.561432106000185
1781099251681628400,15.12162841796875,-0.08638941268622875,-1.268420391665399,-0.08081190481483935
1781099251706704400,15.146704345703125,0.3108142541438341,-1.97002464620471,0.27813743468374014
1781099251731779600,15.171779541015624,2.3773639226019383,-0.13564210389405487,-1.9462255452051758
1781099251756855600,15.19685546875,0.4466057033807039,-0.15457476790100336,0.41639439725130795
1781099251781930500,15.221930419921875,-0.6803437321066856,-1.9236483872160315,-0.22685586799681184
1781099251807006500,15.24700634765625,-0.9503221179932355,-2.305406647633016,-0.8203928387880325
1781099251832081700,15.27208154296875,1.8567156624108552,-0.737291069470346,0.3920882235124707
1781099251857157400,15.297157470703125,1.3673065900921821,-0.28631051200628277,0.1965048611357808
1781099251882232300,15.322232421875,-0.27786358617842194,-1.2823442875996232,-0.4797673837482929
1781099251907308500,15.34730859375,-0.02051554928421974,-1.111539977170527,0.7224784080028533
1781099251932383500,15.372383544921876,-0.20456863286495208,-1.070147936335206,0.19855331809818744
1781099251957459700,15.397459716796876,-0.1356388890236616,-1.3369360017478464,0.9296876185044646
1781099251982534700,15.42253466796875,0.45167993790507316,-1.013772553640604,1.1562483029469848
1781099252007610600,15.447610595703125,0.31408874576985835,-0.6621078181922435,0.18629121789634226
1781099252032685600,15.472685546875,0.7920037796497345,-1.1682403540357946,-0.25166823769211766
1781099252057761800,15.49776171875,0.7300748544812202,-1.0550503204464912,-0.4260249799057841
1781099252082836700,15.522836669921874,0.8442652972847223,-0.5811287401169538,0.2703048413619399
1781099252107912400,15.547912353515626,0.5689455503702163,-0.4212444676309824,0.5247153634995222
1781099252132987600,15.572987548828126,0.28251404233276844,-1.6541344039708374,-0.3019911884799599
1781099252158062600,15.5980625,0.7443021172761917,-1.1078910992741584,-0.1690524983257055
1781099252183138600,15.623138671875,1.5135966369897127,-0.24063626380711792,0.579350916789472
1781099252208213500,15.648213623046875,1.3042185580164194,-1.2913836263626812,-0.03485357897728681
1781099252233289700,15.673289794921875,0.40333354788720605,-1.9186586161047219,0.23430881435126064
1781099252258364700,15.69836474609375,0.8263760048508644,-0.6066694240868091,0.28748569326549767
1781099252283440600,15.723440673828126,-0.16407470991313455,-1.2315820686116814,0.405489556877315
1781099252308515600,15.748515625,0.6233049170672893,-1.9812676324918865,0.6359571856305003
1781099252333591800,15.773591796875,1.8885282662570475,0.4425108352825045,-0.5336179241403937
1781099252358666800,15.798666748046875,0.9628174424290656,-0.48887335800677534,1.4602484931617974
1781099252383742500,15.823742431640625,-1.0362468357771635,-2.21584152752012,0.6566138969510793
1781099252408817400,15.8488173828125,-1.0448486599057911,-1.8621768504261969,0.4560317033737898
1781099252433893600,15.8738935546875,2.0470073481202125,0.34018618683964014,0.6811737531900406
1781099252458968600,15.898968505859376,1.6950544433802366,-0.3842608908876776,0.1350596278309822
1781099252484044500,15.92404443359375,0.8482014676898717,-1.3734285801038144,0.054688452520966525
1781099252509119500,15.949119384765625,0.3533282847464084,-0.8522817227408289,0.7462158419430256
1781099252534195700,15.97419580078125,0.48559039081335065,-0.7162769230142235,0.6510024868100881
1781099252559270700,15.999270751953125,0.8500053022414445,-0.9106038555890321,0.6412316189020871
1781099252584346600,16.0243466796875,1.8485995759725569,-1.1191051517277955,0.7388228090822696
1781099252609421800,16.049421875,1.00158293415308,-1.320301093289256,-0.24224925196170805
1781099252634497500,16.07449755859375,0.04636661437749862,-1.1998662031382321,-0.21219547448158263
1781099252659572500,16.099572509765625,0.5943932953596115,-1.060559731517732,0.6174298875540495
1781099252684648400,16.1246484375,2.261534480419755,-0.8929279136449098,0.6415905153423548
1781099252709723600,16.1497236328125,1.697511773404479,-1.3047630401566623,0.20381752223670482
1781099252734799600,16.174799560546877,0.28851708213984967,-1.280082187886536,0.9130325440406799
1781099252759874600,16.19987451171875,-0.18273323315382003,-1.031764429666102,0.9626298109024762
1781099252784950800,16.22495068359375,0.20107611457407473,-1.428355809816718,0.9680547585606575
1781099252810025700,16.250025634765624,1.1263163982808588,-1.010545992809534,0.6208125157296657
1781099252835101700,16.275101806640624,1.2073089203596115,-0.4908125093758106,-0.1011444987475872
1781099252860176600,16.3001767578125,1.1820230879336595,-0.8462699151054024,0.8764870664536952
1781099252885252600,16.325252685546875,0.554300354424119,-0.5524757693454623,0.23918694178164004
1781099252910327600,16.35032763671875,-0.5008183550834655,-1.626589102180302,1.5450789859682321
1781099252935403500,16.375403564453126,0.2693903568655252,-1.5233283419311046,1.001136943951249
1781099252960478200,16.400478271484374,0.9050140727579593,-0.3350470703855157,0.09438742570281028
1781099252985554200,16.42555419921875,2.6214474042534825,-0.32610183964669703,0.48377428130209443
1781099253010629000,16.450629150390625,1.004542368480563,-1.0889759709239006,-0.735341981229186
1781099253035705300,16.475705322265625,-0.6647960343629121,-1.4728648136287927,1.4686948344677686
1781099253060780300,16.5007802734375,0.10087678772211074,-0.5466311349704861,1.363686646029353
1781099253085856300,16.525856201171877,1.505820742291212,-0.5244570048242807,0.35308337007462975
1781099253110931200,16.55093115234375,2.4686276633262634,-1.0050696072250604,0.15011866527497766
1781099253136006100,16.576006103515624,0.7775742722809315,-0.5557727650642394,1.02828973929286
1781099253161082400,16.601082275390624,0.023497195443511008,-1.2977142906889318,1.3719202213674784
1781099253186157300,16.6261572265625,0.7909095546722411,-1.4381822073042392,0.11848726321458816
1781099253211233000,16.65123291015625,1.0743132393211126,-1.2304960269406438,0.5143389309138059
1781099253236308200,16.67630810546875,1.4282844981461762,-1.1282079111158847,0.41568040376305576
1781099253261384200,16.70138427734375,0.8963421060025691,-0.8847323322296142,-0.014207389050722122
1781099253286459100,16.726459228515626,0.6007260055124759,-0.7259206574112177,0.24824878463745115
1781099253311535000,16.75153515625,0.3077835081458092,-0.919761267773807,1.3039409101188182
1781099253336610300,16.7766103515625,1.322520522904396,-0.7038111169338226,1.1998100890368222
1781099253361686300,16.801686279296874,0.5752770914793014,-0.9799237677916884,0.7814736178070306
1781099253386761200,16.82676123046875,1.562750251737237,-0.6034279579475522,1.002591818934679
1781099253411837200,16.851837158203125,-0.5359224016904831,-1.4355571194976566,0.032926702567934986
1781099253436912400,16.876912353515625,0.858764362758398,-1.1738298446059225,1.3509008142143488
1781099253461988000,16.901988037109376,0.7941168262809515,-0.21222586961984632,-0.9106763363033532
1781099253487063300,16.927063232421876,1.9209072718143463,-1.3536927830204366,0.6481266391128301
1781099253512139300,16.95213916015625,1.3787795857429503,-0.8790189230188726,-1.213052432447672
1781099253537214200,16.977214111328124,0.22074936781525611,-1.6585004902258513,1.7199392937898634
1781099253562290200,17.002290283203124,1.0046668716430665,-1.1606301712930203,1.1060346577525138
1781099253587365000,17.027365234375,1.2119564539045096,-1.0496361864432693,-0.2854617862224579
1781099253612441300,17.05244140625,1.5349743560612201,-1.0746671673253179,1.1310264756679533
1781099253637516300,17.077516357421874,0.0279068285793066,-0.9834557413101196,0.48588148271441456
1781099253662592300,17.10259228515625,0.014164134430885314,-0.6316843306168913,1.1194102721542118
1781099253687667200,17.127667236328126,1.2451193033158778,-0.8714294908031821,-0.12230477567613124
1781099253712743200,17.1527431640625,0.8699269772857428,-0.7218930093303323,-0.07514730318188667
1781099253737818400,17.177818359375,1.2064005733430385,-0.27229806100577114,1.5283400326132774
1781099253762894000,17.20289404296875,0.031659459111094475,0.04929799165427685,1.2543553336948157
1781099253787969000,17.227968994140625,0.1863245356440544,-0.3783265324026346,0.6404477750480174
1781099253813045200,17.253045166015625,1.0639508352607487,0.5941147706791758,2.306613393074274
1781099253838120200,17.2781201171875,1.2452362076938153,0.5962362928777932,2.667258722835779
1781099253863196200,17.303196044921876,0.18619535630643366,0.5062845115348696,1.3669932863593102
1781099253888271000,17.32827099609375,0.7075643319875001,0.9345128467038273,1.9793144525974988
1781099253913347300,17.353347412109375,1.199383388057351,0.9987924266517162,1.772646801626682
1781099253938422300,17.37842236328125,0.7692325603932142,0.1268830433771014,1.053968954950571
1781099253963498000,17.403498046875,0.32057226257026195,0.11925211010724306,1.05887601621449
1781099253988573000,17.428572998046874,0.3412181602358818,0.6645443976894021,1.5223013369709253
1781099254013649000,17.45364892578125,0.23916356090605256,0.7341545250102878,1.3923051300093532
1781099254038723800,17.478723876953126,1.505270707193017,-0.3820873462408781,0.730201987992227
1781099254063799800,17.5037998046875,0.5992962649703025,-0.8623951204761863,1.1718488999217749
1781099254088874800,17.528874755859373,1.4642711728066204,0.42546559245735405,1.7479536743968724
1781099254113951000,17.553950927734373,1.1397346827805042,0.3238286340177059,0.7817027503877878
1781099254139026000,17.57902587890625,2.2343203102797267,0.21543869418650866,0.8886223254054785
1781099254164102000,17.604101806640625,0.8126140214800834,1.2306868733376264,2.0255764375567433
1781099254189176800,17.6291767578125,-0.14605506909787655,-0.5751224854394793,2.242391973054409
1781099254214253000,17.654253173828124,-0.5619459007412195,0.019732874473929404,1.0767647241264582
1781099254239328800,17.679328857421876,1.6487030265718698,0.437966762112081,2.017427033370733
1781099254264403700,17.70440380859375,2.406867080461979,1.0945268830493091,1.1265788486093282
1781099254289480000,17.72947998046875,0.2408873159587383,-0.38856180295199155,0.0245475812792778
1781099254314555000,17.754554931640627,-0.6753647746503353,-0.01951163293868303,2.5653151826649903
1781099254339630800,17.779630859375,-0.4039011186420917,0.9521952183887362,0.9511462938576937
1781099254364705800,17.804705810546874,1.850128685235977,0.8400687223777175,1.7582599643558263
1781099254389782000,17.829781982421874,1.4787123706132173,0.4942176416441798,2.201478947907686
1781099254414857000,17.85485693359375,-0.21427052718997,-0.7286310854136944,3.169181824290752
1781099254439933000,17.879932861328125,-0.7351713008373976,-0.87341949557662,1.2992811016142367
1781099254465007900,17.9050078125,2.27939220867157,-0.07199994506686926,0.41011049467623234
1781099254490083800,17.930083740234377,5.1648739957153795,0.12029460489749907,-0.4132862021028995
1781099254515158800,17.95515869140625,1.6936720491111277,-0.0283469735622406,-1.440803203457594
1781099254540234800,17.98023486328125,-3.2033962285816666,-2.5261346803992986,1.3116186051398515
1781099254565309700,18.005309814453124,-2.1370254726976157,-2.6291145778805016,1.2889157749444247
1781099254590386000,18.030385986328124,2.0084628056705,-0.15575900924950836,0.3687532328933477
1781099254615460900,18.0554609375,4.248310939460993,0.15478461125940082,-0.3410661845445633
1781099254640536800,18.080536865234375,1.9539140538811683,0.9341878525331616,1.9379571908146143
1781099254665612000,18.105612060546875,-0.48610944625139235,-0.2538487966015935,2.1365537635326386
1781099254690688000,18.13068798828125,-0.5903185932666063,-1.2182099613413213,0.2431792262881994
1781099254715763000,18.155762939453126,-0.3909843539237976,0.979254782488942,2.2184400195807217
1781099254740838700,18.180838623046874,1.6280588824719189,-0.20520722302943467,2.939219222450256
1781099254765913900,18.205913818359374,1.674913572627306,-0.6759779381126165,-0.5441308425873518
1781099254790989800,18.23098974609375,2.2802748367249963,0.05345744942128658,1.7161539300322532
1781099254816064800,18.256064697265625,1.0093266801476477,-0.3515437394171953,1.6669874558031559
1781099254841141000,18.28114111328125,-0.8873299475073814,-0.46652913199067114,-0.5282318471878766
1781099254866216000,18.3062158203125,0.5349322216093539,-0.9646198156759143,1.3247726857453583
1781099254891292000,18.3312919921875,1.3449685015559196,0.36031010645776984,0.5021668470829725
1781099254916366800,18.356366943359376,1.033819316369295,-0.4548553530707955,1.103892969548702
1781099254941443000,18.381443115234376,0.2719675138771534,-0.719524818894267,1.4690660058677196
1781099254966518300,18.406518310546875,-0.4508756357848644,-1.0124094485938548,1.9045108482867479
1781099254991594000,18.431593994140623,2.1101497407317162,-0.9569111409947275,0.3251028917372227
1781099255016669000,18.4566689453125,1.9158856442600487,-0.31694910363703965,0.4400070357680321
1781099255041745200,18.4817451171875,1.1657377235651016,0.08219839073717594,1.1418167497515679
1781099255066820000,18.506820068359374,0.33258009575009345,-0.20423107147365807,-0.11647358530461788
1781099255091896000,18.53189599609375,0.4098147266000509,-0.5303022237211465,0.5943219836890697
1781099255116972000,18.556971923828126,-0.4298515524566173,-0.4940025375887751,2.619721311113238
1781099255142047200,18.582047119140626,0.8266700193613767,0.30192426072359085,1.9496376917362213
1781099255167123200,18.607123291015625,2.222474974185228,-0.16110212384313344,0.23244272821843623
1781099255192198100,18.6321982421875,2.473513097280264,-0.07895984720736741,1.1673469123274087
1781099255217274000,18.657274169921877,0.13194587972462177,-0.34342794523984194,2.473597268432379
1781099255242349000,18.68234912109375,-0.45112990280687804,-0.9496224452912807,1.101235733038187
1781099255267425000,18.707425048828124,0.6894540902793407,-0.6209513396784663,0.20401976681053638
1781099255292500000,18.7325,2.2120172930568454,0.15795885738134383,1.9087077154546974
1781099255317576200,18.757576171875,1.9449182619988916,0.27733313256353137,1.5658587391465901
1781099255342651100,18.782651123046875,0.9122562989711761,-0.921251214070618,1.251376025623083
1781099255367727000,18.80772705078125,1.1769149511396884,-0.634305326770246,0.9231588012576103
1781099255392802000,18.832802001953127,0.6840466782778502,-0.9738783501476049,2.2315175278186796
1781099255417878300,18.857878173828126,1.130949318778515,-0.984044354853034,1.3421417536973952
1781099255442953200,18.882953125,1.3738766161322593,-0.12827654356211424,1.5236603503644466
1781099255468029000,18.90802880859375,2.2151462387323377,1.1452855949059129,0.7599626277446746
1781099255493103900,18.933103759765626,1.3014070077270268,-1.0210679713457822,1.0403139390856027
1781099255518180000,18.95818017578125,0.5724696328431368,-1.1204156498044728,0.6636743368566036
1781099255543255000,18.983255126953125,0.021967501658201216,-1.223565058633685,2.5721593494713306
1781099255568331000,19.0083310546875,1.513040172150731,0.468888554598391,1.3266811497151851
1781099255593406200,19.03340625,3.0529128216475248,0.4153223841056227,-0.03631166883111
1781099255618482200,19.058482177734376,1.8039403500348328,-0.548929182779789,1.4237813415080307
1781099255643558100,19.08355810546875,-0.9147598062247038,-0.6703937082394957,1.1293073967903853
1781099255668633000,19.108633056640624,-0.5149754752516746,-1.2751429779186845,1.8585949002861974
1781099255693709000,19.133708984375,1.4903145456016063,0.21446604976207018,0.7628571801424026
1781099255718784000,19.158783935546875,2.2768150516599417,0.2560845928296447,1.7199392937898634
1781099255743860000,19.18385986328125,2.093682005533576,0.020201076507568357,0.534216182294488
1781099255768935200,19.20893505859375,0.24079671506583689,-0.41253830634504557,1.4866250434339046
1781099255794011100,19.23401123046875,-0.5943114622950554,-1.240197336743772,2.424589784157276
1781099255819086000,19.259086181640626,0.34109190350770946,-0.2017225957840681,1.3774474603563547
1781099255844162000,19.284162109375,2.622485515129566,0.2617185070633888,1.1647340994805098
1781099255869237200,19.3092373046875,2.0501964995503426,-1.2865201119795442,0.6044307052493095
1781099255894313200,19.334313232421874,-0.05307458758354187,-0.5793316275671124,1.7185908017903566
1781099255919388200,19.35938818359375,0.6865712283194064,0.40444676982611416,1.0344523535758257
1781099255944464000,19.3844638671875,1.7104057417690752,-0.24732056387662887,-0.6819646113067865
1781099255969539000,19.4095390625,0.41274493483304975,-1.0367708596512675,1.5836282045930623
1781099255994615000,19.434614990234376,0.003095627927780151,-1.1020210381969808,3.4029186839729544
1781099256019690000,19.45968994140625,0.33654549224972724,0.32527035725861786,1.4523177001625298
1781099256044766200,19.48476611328125,2.6964041532993317,-0.14287936167120932,0.08487667003571987
1781099256069841200,19.509841064453123,1.9163538462936878,0.18860212518721817,1.388466867020726
1781099256094917000,19.534917236328123,-0.8377391103863716,-0.7210220717146992,3.4238346307516094
1781099256119993000,19.5599931640625,0.13176701602637766,-0.9291215090543031,1.5255127002328632
1781099256145068300,19.585068359375,1.0640174707561731,-0.08171732922196388,1.6536621102839708
1781099256170144000,19.61014404296875,3.07903159776628,1.3931079708248375,2.206390100824833
1781099256195219000,19.635218994140626,0.754689655777812,-0.690982907281816,-0.13846446783840655
1781099256220295200,19.660295166015626,0.47863574936985964,-1.4588929868996143,0.17854630285799503
1781099256245370000,19.6853701171875,0.49151627373099327,0.503779250715673,2.5851246295064687
1781099256270446000,19.710446044921873,1.965029906657338,0.11142623878717421,1.51166186953485
1781099256295521000,19.73552099609375,1.943071172827482,-0.139108903221786,-0.4154699758827686
1781099256320597200,19.76059716796875,0.5500327601075172,-0.9525044304683804,2.830111781999469
1781099256345672200,19.785672119140624,-0.17921324233412742,-0.8141261796087026,0.860299317240715
1781099256370748200,19.810748046875,0.4637994147658348,0.7530144160419702,0.9653671269118785
1781099256395823000,19.835822998046876,3.5273370908021926,0.8094953049376606,1.658723485326767
1781099256420899000,19.860899169921876,1.491777019369602,-0.056528527429699896,2.0182395187973974
1781099256445974000,19.88597412109375,-0.45789399011433124,-1.1139464537903665,1.7427146046996116
1781099256471050000,19.911050048828123,-0.8068886295706034,-2.0118366660177704,1.885026980137825
1781099256496125000,19.936125,0.9078431587040424,0.8174123616725206,1.773635812664032
1781099256521201200,19.961201171875,2.9395734427154063,1.2871978651106357,1.2357751363873481
1781099256546277000,19.986277099609374,1.2669511958956718,-0.7713324552819132,-0.7670341735661029
1781099256571352000,20.01135205078125,-0.5817202762693167,-0.19950345842987297,2.3569003957659005
1781099256596428000,20.036427978515626,0.2669184137940407,-0.2986155745670199,2.3558991097688673
1781099256621503200,20.061503173828125,1.9453882175981998,-0.36028935593068595,0.06718786861002445
1781099256646579000,20.086578857421873,3.778675658148527,0.8675847980737685,2.050399328646064
1781099256671654000,20.11165380859375,1.8993395831286906,0.0527332267999649,2.442235330963135
1781099256696730000,20.136730224609376,-0.39418519579172134,-0.9819579039677977,-0.3687888887286186
1781099256721805000,20.16180517578125,-0.08697159648835659,-1.1781909624248743,1.2019307344526051
1781099256746881000,20.186881103515624,1.9158751228660345,0.26096739643514155,1.7879150979071854
1781099256771956000,20.2119560546875,2.6319687982678412,0.9325412543699145,0.27926760775744913
1781099256797032200,20.2370322265625,1.9320470899879931,-0.5312067713454366,1.0004647437781096
1781099256822107100,20.262107177734375,-0.4158060759693384,-1.2630009969651699,2.0035598360598086
1781099256847183000,20.28718310546875,-1.3014783193975685,-1.3995520323976873,2.8591502449572084
1781099256872258300,20.31225830078125,0.8755050696790218,0.1966857706606388,1.7160709279239177
1781099256897334000,20.337333984375,1.8902116892993448,0.3817945007741451,1.0179086305320262
1781099256922410000,20.362409912109374,1.7969266718804835,-0.1457780057221651,1.4293682017296552
1781099256947485000,20.38748486328125,-0.09365911142826079,-0.7016045468002557,1.9006845679968594
1781099256972561400,20.4125615234375,0.0741921944141388,-1.0947609840661288,0.8943062162607908
1781099256997636400,20.43763623046875,0.32685178123116493,-0.1770008269816637,1.789962093564868
1781099257022712300,20.46271240234375,1.140238540649414,0.5159703315079212,1.6439800897032022
1781099257047787500,20.48778759765625,2.099832929378748,1.1466586368247866,1.2123165193885563
1781099257072863200,20.51286328125,1.1005664554744958,0.681010671582818,1.3021218779981136
1781099257097938200,20.537938232421876,-0.25642741491794585,-0.6034843643099069,2.9175860673129557
1781099257123014400,20.563014404296876,0.3244166630387306,0.5120175022289156,2.4027666594058275
1781099257148089300,20.58808935546875,3.103231973043084,0.8554515849485993,1.4407891749322415
1781099257173165300,20.613165283203124,3.098274642896652,0.40619595158100125,0.18446458699107168
1781099257198240300,20.638240234375,-0.08869944319427013,0.06554916149228811,1.43782623347342
1781099257223316500,20.66331640625,0.303190335136652,0.24246640184372661,1.4342723403841255
1781099257248392400,20.688392333984375,1.551002530798316,0.4338289316549897,-0.021250877821445465
1781099257273467400,20.71346728515625,2.3338912761002777,0.21044629272669552,1.141319906145334
1781099257298543400,20.73854345703125,0.849107476618886,0.23681845908463,2.0359271511793136
1781099257323618300,20.763618408203126,0.17107845119535922,-0.9686462947130202,1.8928157343178986
1781099257348694300,20.7886943359375,0.05691957257390022,-0.2147241161763668,1.3385229786783457
1781099257373769200,20.813769287109373,0.41195232315063474,0.34477614497840403,2.2674340598523615
1781099257398845400,20.838845458984373,0.8613233995914459,1.5592404900506138,1.7877829959601164
1781099257423920400,20.86392041015625,0.9515022676885128,1.2897706382080911,2.0829829168647525
1781099257448996400,20.888996337890624,0.2610322783648968,0.10432020617425442,2.1319600060015915
1781099257474071300,20.9140712890625,0.5908510927081108,0.7698822564736009,3.201215377411246
1781099257499147500,20.9391474609375,1.339385732987523,0.13637100269049404,2.2026778023034335
1781099257524222500,20.964222412109375,1.3993348825156688,0.12604746933579444,0.5803986722767353
1781099257549298200,20.989298095703123,1.80340492798388,0.6575885872021318,1.3747586596637964
1781099257574374400,21.01437451171875,0.5526192694693803,0.909511091916263,1.3836077365517616
1781099257599449300,21.039449462890627,0.759014533239603,0.004963759887218475,0.7497866861671209
1781099257624525300,21.064525390625,0.5899637884795665,-0.11337824963778256,1.1705910088151692
1781099257649600300,21.089600341796874,1.693362252509594,-0.03746814538985491,1.9302613756150007
1781099257674676500,21.114676513671874,1.0584949079424142,0.22853403034210204,1.0122475360304117
1781099257699751400,21.13975146484375,1.6693576920658348,1.2362164504140614,1.8791198019206523
1781099257724827400,21.164827392578125,1.7853923014312982,0.6384814434111118,1.2313047129750252
1781099257749902300,21.18990234375,0.3339092985272407,-0.1156859420582652,1.847282648155093
1781099257774978300,21.214978271484377,0.26228841590583324,-0.04264496350586414,2.2395377526670694
1781099257800053200,21.24005322265625,0.42959786995649335,0.06914367885291577,1.0496078371316193
1781099257825129200,21.265129150390624,2.3917530979603527,0.485420002682507,0.09052256696820259
1781099257850204200,21.2902041015625,1.2193313665866852,-0.030674539726972577,1.8080512924849985
1781099257875280400,21.3152802734375,-0.03496843752861023,-0.25214783790260553,1.6601643317848442
1781099257900356400,21.3403564453125,-1.5705425130486488,-0.13713614184409378,1.831847763136029
1781099257925431300,21.365431396484375,1.0547966379463671,1.162741464358568,2.546768303105235
1781099257950507500,21.390507568359375,1.9548124640256166,0.996549031639099,1.6679302896112203
1781099257975582200,21.415582275390626,1.5819845290392636,-0.37149288699030875,1.7904086682885885
1781099258000658200,21.440658203125,-0.5766822821021079,0.4868260700881481,1.4953005173206328
1781099258025733000,21.465733154296874,0.40509763495028017,0.6165200792327523,2.1082208184957505
1781099258050809000,21.49080908203125,2.2514491397351026,1.6866250532090663,0.36074879013597966
1781099258075884000,21.515884033203125,2.543127900776267,-0.04307195674628019,1.5285229879647493
1781099258100960300,21.540960205078125,-0.3325894481003284,-0.29115882882028815,0.946361982190609
1781099258126035200,21.56603515625,-0.9174597128331661,-0.04617109180539846,1.3846446783840656
1781099258151111200,21.591111083984377,1.1855226204872131,0.5306447535485029,1.03119890473783
1781099258176187400,21.6161875,2.309196395304799,1.3416849498406052,-0.22860241940319537
1781099258201262300,21.641262451171876,1.177424654227495,-0.08835106814801692,2.0524790575295686
1781099258226338000,21.666338134765624,-0.45167876886129377,0.11495908908843994,1.4827157610356807
1781099258251413000,21.6914130859375,-0.6955255191475153,0.5867015718132257,2.4331495227098463
1781099258276489200,21.7164892578125,1.162847847342491,0.8318126429468393,2.371910917893052
1781099258301564200,21.741564208984375,1.1996236265540123,0.5544768800348043,1.1937319381669163
1781099258326640000,21.76664013671875,0.49135494568943977,0.182932847379148,2.1688877609044312
1781099258351715300,21.79171533203125,-0.3939285906821489,0.40663200491070745,1.3684540065616368
1781099258376791300,21.816791259765626,0.9115221394777298,1.0546256652936339,0.8750053034633397
1781099258401866200,21.8418662109375,0.9998457350969314,0.9308020094871521,1.6914380064487455
1781099258426942200,21.866942138671874,-0.30234628552794457,-0.2717807591333985,1.240111704286933
1781099258452018200,21.89201806640625,-0.602988105225563,-0.24943565633445977,0.666782532005012
1781099258477093000,21.917093017578125,0.3591343406766653,0.757347184549272,1.7541209648549556
1781099258502169000,21.942169189453125,1.6880080320000648,2.1607573536798355,1.3212497723162173
1781099258527244000,21.967244140625,1.8855588950574398,1.6582412547677754,0.4615165645256638
1781099258552320300,21.9923203125,-0.041184243303537364,0.2612643335551023,1.3123159397542477
1781099258577395200,22.017395263671876,-1.7270786441504955,0.5021431739464401,2.139461759933829
1781099258602471200,22.04247119140625,-0.6445873590707779,0.3035030543476343,1.8892355377435683
1781099258627546400,22.06754638671875,1.3230863400936126,0.49979105786234135,0.2188333050608635
1781099258652622300,22.092622314453124,2.0895108573287726,1.9618980383723974,0.681269907040894
1781099258677697300,22.117697265625,0.8819155212432146,1.2817787626713513,1.2195061386317014
1781099258702773000,22.14277294921875,-1.8975836793720722,-0.012378712318837642,0.2813359384641051
1781099258727849200,22.16784912109375,-0.5729039326071739,0.22341011145710943,1.524888723115623
1781099258752924200,22.192924072265626,0.8002735953450203,0.6212137900069356,1.8094398242339491
1781099258778000100,22.218000244140626,0.714828770032525,-0.0604474544391036,0.9877101838842034
1781099258803075300,22.243075439453126,-0.3613210370659828,0.25099136134386063,1.4797881831511854
1781099258828151300,22.2681513671875,0.4114484652817249,1.214210078050196,1.0638429909721017
1781099258853226200,22.293226318359373,0.7754571339964866,1.0307751263678073,0.9457134551540016
1781099258878302200,22.31830224609375,0.2270896767526865,0.6035027767494321,1.1341618510842322
1781099258903377400,22.34337744140625,-1.600730730563402,-0.0593625818118453,2.1340730526328087
1781099258928453000,22.368453125,-1.2240624867618084,-0.18013094170093535,2.243445866021514
1781099258953528000,22.393528076171876,0.4557517173886299,0.822074216003716,0.1986158619403839
1781099258978604800,22.418604736328124,1.4582412449926136,1.2254632934704421,0.7444792274087667
1781099259003680800,22.4436806640625,0.3796598268330097,1.3171350304737686,0.449352664001286
1781099259028755700,22.468755615234375,0.13329261815845966,1.0449579654991625,-0.03242138339430094
1781099259053832000,22.49383203125,-0.39106969411969184,0.10711188271939753,0.7727262477278709
1781099259078907000,22.518906982421875,-0.8862515046209096,0.2891527496948838,0.9994456298634409
1781099259103982600,22.543982666015626,0.7157844633221626,0.49298926889300343,1.1638760213464499
1781099259129057500,22.5690576171875,1.472280291739106,1.2617843146517873,-0.09299655586630105
1781099259154133800,22.5941337890625,1.3292846102118492,1.4342963057816027,1.3433166426956653
1781099259179208700,22.619208740234374,-0.48194765039682386,0.018756430657207966,0.8130991746485233
1781099259204284700,22.64428466796875,-1.3350310449093579,-0.06637596770524978,0.8871671581611037
1781099259229361000,22.66936083984375,-0.23545652308166026,1.057120696979761,1.3967995188191533
1781099259254435800,22.694435791015625,1.581855349701643,1.631729095417261,0.6840311884477734
1781099259279511800,22.71951171875,1.6640023025125263,0.9302782778739929,0.16025018318891524
1781099259304586800,22.744586669921876,-0.06051087506413459,0.10109627569168805,0.5991001578763127
1781099259329662700,22.769662841796876,-1.7115356225818394,-0.1474792566820979,0.7973457251995801
1781099259354737700,22.794737548828124,-0.9680337157726288,0.4097784862428903,0.5898284716621041
1781099259379813600,22.819813720703124,0.47467912069857116,0.5817156000941991,0.3353679729029536
1781099259404888600,22.844888671875,1.5297633434146642,0.40304157920330763,0.23679332464337347
1781099259429964800,22.86996484375,-0.2676911517322063,0.33406273552328347,0.11812369059920311
1781099259455039700,22.895039794921875,-1.6361480809032916,0.044025604209303855,1.5066285515427589
1781099259480115700,22.92011572265625,-0.593555090969801,0.3491606436729431,0.5802376364961266
1781099259505191700,22.945191650390626,1.5881582492381334,0.9345575626283884,0.8099462635755539
1781099259530267000,22.970266845703126,1.0729407819241286,0.12283522929102182,1.344844582915306
1781099259555342600,22.995342529296874,-1.2585317425966263,-0.06640110214650631,0.8628408184170723
1781099259580417500,23.02041748046875,-0.8788403515815735,0.4170306493282318,0.5616486713603138
1781099259605493800,23.04549365234375,1.487739726677537,1.632398665241897,0.4759188916265964
1781099259630568700,23.070568603515625,1.3791723844528196,0.9621902504414319,0.3677782503813505
1781099259655644700,23.095644775390625,-0.4035802161246538,0.42837797277271744,1.1949717090949414
1781099259680719600,23.1207197265625,-0.23295535391569136,-0.15201426976323126,0.5226999320238829
1781099259705795800,23.1457958984375,0.7262421444505452,-0.06603197657316923,0.2096656637430191
1781099259730871600,23.17087158203125,1.026452586993575,-0.39446430499404667,0.16223346596062183
1781099259755946800,23.19594677734375,0.6337889016807079,0.007298340314626693,-0.28553309789299963
1781099259781022700,23.221022705078123,-0.25931612209677696,-0.7080921552538871,-0.8974164572358131
1781099259806097700,23.24609765625,-0.3915075010150671,0.4895259766966104,-0.25385727216899395
1781099259831173600,23.271173583984375,-0.23619886588156222,0.2344920619636774,1.2009344168916345
1781099259856248600,23.29624853515625,-0.2624023976743221,-0.2904366520255804,0.05939852990806102
1781099259881324800,23.32132470703125,-0.26126842520833016,-0.6762710758402943,0.13545681045502422
1781099259906399700,23.346399658203126,-0.06309563086032867,0.22855945704430342,0.8309583642050623
1781099259931475700,23.371475830078126,0.09431202237904071,0.38665743063539265,-0.22086393410563468
1781099259956551700,23.3965517578125,0.11357844838500022,0.10242664751261472,-1.04569943151623
1781099259981625900,23.4216259765625,-0.23594109172821043,0.6893965148732065,0.49538551637977357
1781099260006701800,23.446701904296877,-0.5436304918497801,0.0746080817386508,0.9654609426751732
1781099260031777000,23.471777099609376,-0.19175240591168402,-0.34231033938676114,-0.38676089100986716
1781099260056852700,23.496852783203124,0.7856646397560835,0.3145709763288498,0.19812749390155077
1781099260081927700,23.521927734375,0.9382838896751403,0.02046761848926544,0.10968085642457008
1781099260107004000,23.54700390625,-0.395485756996274,-0.1738528843447566,-0.9535817043110728
1781099260132078800,23.572078857421875,-0.41548984962701796,-0.19884104899838564,-0.4605585331484675
1781099260157154800,23.59715478515625,0.03612111469507217,0.24643545160517094,-0.22059037786126134
1781099260182229800,23.622229736328126,0.5241512998759746,0.6021249125249684,-0.7489961203113198
1781099260207306000,23.647305908203126,-0.15159633661210536,0.21475305000990627,-0.5016039525032043
1781099260232381700,23.672381591796874,-0.8231015132248402,0.434653545910865,-0.1607043566972017
1781099260257457000,23.697456787109374,-0.30443770484924315,0.17978680443838238,-0.8287772207736969
1781099260282532900,23.722532958984374,0.35181261948645115,1.050289097394049,-0.3270911429449916
1781099260307607800,23.74760791015625,-0.625289953404665,0.030604104839265345,0.23081132762432097
1781099260332683800,23.772683837890625,-1.3345137430369853,-0.8860909072317182,-0.6346519482508302
1781099260357758700,23.7977587890625,-1.198451075643301,-0.17799699841216204,-0.9442889753088355
1781099260382835000,23.8228349609375,0.44639410645663735,1.2243487563572824,-1.217967969278991
1781099260407910000,23.847909912109376,1.1977484803318976,0.8880141303792596,-2.369691196016967
1781099260432985900,23.87298583984375,-0.3030453737080097,0.5076118146158755,-0.8537336751148105
1781099260458061800,23.898061767578124,-1.9423370133340359,0.4050087876230478,0.04030658368617296
1781099260483136800,23.92313671875,-1.8186849147021769,-0.11178820396736264,-1.530981487032771
1781099260508212700,23.948212646484375,-0.2723895386815071,0.6105855746172368,-1.3654308593481779
1781099260533287700,23.97328759765625,0.04069207587242126,0.13881868810355663,-0.7541603712067008
1781099260558364000,23.998364013671875,0.16375263835191725,0.21970731141641733,-1.535528482812643
1781099260583438800,24.02343896484375,-0.7874661362200975,0.8203523606471717,-1.915760556575656
1781099260608514800,24.048514892578126,-0.8901619560629129,0.8026927853159606,-0.6985624026253819
1781099260633591000,24.073591064453126,-1.758633473843336,-0.32283114741295577,-0.30016484983563424
1781099260658666000,24.098666015625,-2.452633975380659,0.23538828015103935,-0.5897635897323489
1781099260683741700,24.12374169921875,-1.2456839514613152,1.702174212257564,-0.2579427879169583
1781099260708816600,24.148816650390625,1.7129256156355142,2.14975942819491,-1.2178382054194807
1781099260733892900,24.173892822265625,1.127234097647667,1.8093239427693186,-1.8890674877002833
1781099260758967800,24.1989677734375,-5.128536607921124,1.7167374290086328,2.6648744580477475
1781099260784043800,24.224043701171876,-5.545443923130631,-1.3753482961200176,3.4277611565455794
1781099260809120000,24.2491201171875,5.131664969074726,0.755085815488547,-5.459049834269285
1781099260834195000,24.27419482421875,7.376267603915929,2.294439409547299,-7.1832999769955865
1781099260859271000,24.29927099609375,1.8388468282431363,3.4263258630454536,-1.1918155831515789
1781099260884345900,24.324345947265623,-5.568308665889501,-0.9298824104242026,-3.157074037867784
1781099260909421800,24.349421875,-4.503302768617869,-1.1625485721349715,-0.8905231905907391
1781099260934496800,24.374496826171875,-2.1353303592175243,0.3896992825493216,0.6805813402548432
1781099260959573200,24.3995732421875,2.2798259239137173,0.9547419802621007,0.7146700723394751
1781099260984648200,24.424648193359374,4.107580280256271,0.1521063319608569,-3.358774421820044
1781099261009724200,24.44972412109375,-2.07591896982789,1.2202942202694713,-0.1148670268908143
1781099261034800400,24.47480029296875,-4.246032473134994,0.005940642095357179,1.550401642295718
1781099261059875300,24.499875244140625,-3.919897900262475,-0.2051594383649528,-1.3969570474684239
1781099261084951000,24.524950927734373,-1.3058335919976234,0.8650473885506391,-1.4551856568142771
1781099261110026200,24.550026123046877,1.7667139044463633,1.8245543912574649,1.0410007523059845
1781099261135102200,24.575102294921876,0.5971557458102703,0.773238873425126,-0.037706922581791875
1781099261160177200,24.60017724609375,-0.9002081337809562,0.0048471477702260015,-1.9052645892634987
1781099261185253000,24.625253173828124,-1.8946639925330877,0.173702954480052,-0.3130462509796023
1781099261210329300,24.650329345703124,-1.074760398566723,0.6562735590808093,0.05024871650785207
1781099261235404300,24.675404296875,0.6809890442728996,0.5828161086820066,0.15703180566430092
1781099261260480300,24.700480224609375,1.742239972925186,0.27090719116926193,-1.155901096944511
1781099261285555200,24.72555517578125,-0.12697569009661674,0.8013384480975568,-0.42720308377444743
1781099261310631200,24.750631103515627,-1.0757587619543074,-0.045442046878486866,0.12387246338427066
1781099261335706000,24.7757060546875,-0.4432587310403585,-0.4813410628058016,-0.965605027320981
1781099261360782000,24.800781982421874,0.0628676673233509,0.49774128572568294,-0.9630760933652519
1781099261385858300,24.8258583984375,-0.4383002318501472,0.5204191276103258,0.6707865069493651
1781099261410933200,24.850933349609374,-0.6094669458508492,0.13288973644599317,-0.21708675365447996
1781099261436009200,24.87600927734375,-0.05867372276484966,-0.3274421483397484,-0.5915586564555764
1781099261461084200,24.901084228515625,-1.2306342663675547,0.2599149647727608,0.6512421407848596
1781099261486160400,24.926160400390625,-2.2183155164182184,-0.5933896712750196,1.4879551229938863
1781099261511235300,24.9512353515625,-1.4664818345934152,-0.8028437380939721,0.5742109235525131
1781099261536311000,24.97631103515625,0.06569149257242679,-0.2105345555320382,-0.21460107431858777
1781099261561387300,25.00138720703125,1.0141086537271737,1.6733309796109794,0.3705307639598846
1781099261586462200,25.026462158203124,-0.30114684661030766,0.5797533601105213,0.759635587747395
1781099261611538200,25.0515380859375,-1.2662895171165465,-0.7963242731973529,0.7159890459835528
1781099261636613000,25.076613037109375,-0.9301765710651874,-0.36973581418991086,0.16760054595172405
1781099261661689300,25.101689453125,0.7656301519870757,0.3503717730283737,2.0502841778337952
1781099261686764300,25.126764404296875,1.9034616314947603,1.0717749530151486,0.2321975212857127
1781099261711840300,25.15184033203125,1.182495966142416,-0.8444789400354027,-0.8669304258182644
1781099261736916200,25.176916259765626,1.4498516023099421,-0.004216156390309334,-0.6497428421378135
1781099261761991200,25.2019912109375,0.9266519040703773,0.058686582246422765,1.1805179440677165
1781099261787067100,25.227067138671874,1.7179811454594134,-0.09318447965383529,0.40978316241800783
1781099261812142000,25.25214208984375,0.8780185138046741,-0.8253916699886321,0.0034971944659948346
1781099261837218300,25.27721826171875,0.7474474295645952,-0.6357604940146208,1.0517419265508652
1781099261862293200,25.302293212890625,0.6113409230291843,0.12405892586708069,0.9559691839694976
1781099261887369200,25.327369140625,1.278314301431179,-0.16217033759653568,-0.25914251909554004
1781099261912445200,25.352445068359376,1.6856249362558124,0.39298049617707725,0.01830664106309414
1781099261937520400,25.377520263671876,1.3295207570552825,-0.2631631529137492,1.5098948598623274
1781099261962596400,25.402596435546876,-0.09246434868574142,-1.1381436141967773,1.4238906471014021
1781099261987671300,25.42767138671875,-0.01822889965176582,-1.1184259372919798,1.5600024143338203
1781099262012747300,25.452747314453124,1.5352625253528356,-0.024750702635943887,1.3137877658724784
1781099262037823500,25.477823486328123,2.462339376837015,0.3548401506140828,0.396543157094717
1781099262062898400,25.5028984375,1.3774761019289492,-0.7073492279320955,0.1294827044814825
1781099262087974400,25.527974365234375,0.42218145622014996,-0.9674071083068847,0.8205202645599842
1781099262113049300,25.55304931640625,0.3919675197422504,-1.7052672098368404,1.4478653969287871
1781099262138125300,25.578125244140626,0.8411153088212012,-1.118604508729279,0.6872428439706564
1781099262163201300,25.603201171875,0.7603320455789565,-1.2486448470935225,1.2098445763170718
1781099262188276200,25.628276123046874,0.2752209627151489,-1.1613394886061548,0.7988760035067797
1781099262213352400,25.6533525390625,-0.6003197627991438,-1.4199775653108953,1.2217419348597527
1781099262238427400,25.678427490234377,-0.16752631167173385,-0.49093175184130666,0.9869932677865028
1781099262263503400,25.70350341796875,0.7242296355843544,0.109179336643219,1.4409230304449796
1781099262288579600,25.72857958984375,0.524025627669692,0.2307636890903115,0.8722142114400863
1781099262313654500,25.753654541015624,0.9106278209865093,-0.32677111721038815,1.904063104519248
1781099262338730200,25.778730224609376,-0.23953473230600356,-0.8731599678575992,3.660583531731367
1781099262363805200,25.80380517578125,0.6646972501635551,-1.620702966751158,1.702008500301838
1781099262388881400,25.82888134765625,2.711232304596901,0.12804361158907412,0.2919277673661709
1781099262413956400,25.853956298828123,5.562895408669114,1.3110036881119012,-0.8244792313188314
1781099262439032300,25.8790322265625,3.35471667086184,0.8052975609868764,-1.1414584378331898
1781099262464108500,25.904108642578127,0.041484103032946584,-1.600301983757317,1.48868489857316
1781099262489183500,25.92918359375,0.9314344621717929,-1.12031832690984,1.156016540017724
1781099262514259500,25.954259521484374,2.7223335443258283,-1.0253680066272617,0.5608627816796302
1781099262539334400,25.97933447265625,4.057801227086782,1.8121265790998935,-0.6617687954962254
1781099262564410400,26.004410400390626,1.9651590859949588,0.8075038388594985,1.1928741522938013
1781099262589486300,26.029486328125,0.5831897642999887,0.1773465716794133,0.2635761176288128
1781099262614561300,26.054561279296873,-1.0891010586082934,-1.5713371705576777,3.3335499641925095
1781099262639637500,26.079637451171877,-0.17527181123197078,-3.033531244829297,2.9952687341913578
1781099262664712400,26.10471240234375,1.5156898098766802,-2.0559701145157216,-1.6090902703687548
1781099262689788400,26.129788330078124,4.79640425593853,0.759699008372426,0.8794663745254278
1781099262714863400,26.15486328125,1.356778766337037,1.5412629348114133,-3.4082501081287857
1781099262739939300,26.179939208984376,-3.584416822373867,0.30406711797118186,-2.032433171583712
1781099262765015300,26.205015380859376,-6.3539563545107836,-0.04071048831194639,9.848804549640416
1781099262790090200,26.23009033203125,-5.992298048314452,-5.588544813710451,8.449249302372335
1781099262815166500,26.25516650390625,6.556255873399973,3.377154712641239,-0.7687637738376856
1781099262840241400,26.280241455078126,7.220406011074781,1.2264312617197632,-0.2797115521326661
1781099262865317400,26.3053173828125,9.396796110433339,2.798286610932648,-1.1829723514825106
1781099262890393300,26.330393310546874,-2.3290537729412315,0.8422337914571165,-7.5130749521970746
1781099262915468500,26.355468505859374,0.8695803558051586,-2.1221444221690295,-0.9944505980551243
1781099262940544300,26.380544189453126,-0.43035541032552715,-0.30516134294867514,-0.5053539526864886
1781099262965619700,26.40561962890625,-2.778991251093149,-0.688584613968432,2.2581366546750066
1781099262990695700,26.43069580078125,-1.6555916170418261,-0.997972050179541,5.889235733246803
1781099263015771600,26.455771728515625,-1.6712930440425873,-0.7784341039806604,3.522430614060163
1781099263040846800,26.480846923828125,-1.7358032178759575,-0.4012698933556676,2.4752587719038126
1781099263065922800,26.5059228515625,1.862915101572871,0.45259617596715684,0.8831900712236761
1781099263090997800,26.530997802734376,2.6676462608486413,1.4351827332273124,1.16880850931257
1781099263116073700,26.55607373046875,1.8969295993775128,2.1180945622563363,0.7085822768583894
1781099263141149700,26.581149658203124,-0.9558663081169128,0.4693070722714066,2.053112971518934
1781099263166224600,26.606224609375,-1.383543439143896,-0.5359276623874902,0.09273439779877662
1781099263191300600,26.631300537109375,1.0977397076159714,0.3416846087038517,1.3143676115870475
1781099263216375800,26.656375732421875,5.8259115543276065,1.9295681326538323,-1.2651894469201563
1781099263241451800,26.68145166015625,2.3799095154315233,0.4761325343772769,-0.5451973027750849
1781099263266526700,26.706526611328126,-0.09738251586556435,-0.8455202657818793,0.543899079658091
1781099263291602700,26.731602783203126,-1.540302857607603,-1.0525973743364214,1.1038295489236711
1781099263316678700,26.7566787109375,0.36853754431605334,-0.05102876096963882,-0.5006467979088426
1781099263341753600,26.781753662109374,1.3686883998394013,0.7545002706855535,0.5362430119469761
1781099263366829600,26.80682958984375,0.37776597591042516,0.03424509169012308,1.8679785224422811
1781099263391904500,26.831904541015625,-1.2828712340831756,-1.124995671071112,1.8712232034519314
1781099263416980700,26.856980712890625,-3.677654493519664,-1.4221569551765918,2.3421219288289548
1781099263442056700,26.882056640625,-2.9318606763809916,-0.8206111577138304,3.4361151433929797
1781099263467131600,26.907131591796876,-0.49804187610745426,0.3345283072084188,1.8879381914094089
1781099263492207900,26.932207763671876,0.39043198073804375,0.6182952722117304,0.5137529477193952
1781099263517282800,26.95728271484375,-0.003295534414052963,0.39861820980310436,1.434301274217665
1781099263542358500,26.982358642578124,-1.1145476345539092,0.2097954276025295,2.3891779867753384
1781099263567434800,27.007434814453124,-1.9627701450318098,-1.1325275278806686,0.9797256148710847
1781099263592509700,27.032509765625,-0.7000912196278571,-0.19572627797871828,1.24822048420161
1781099263617585700,27.057585693359375,2.4241841259658337,1.2905749403283,0.8804758438289165
1781099263642660600,27.08266064453125,2.490499303394556,0.9349415935099125,-0.25876667152047156
1781099263667736800,27.10773681640625,1.8431190987348556,0.9941831792905926,-1.007575452566147
1781099263692812800,27.132812744140626,1.0089192683905361,0.2610419229760766,-0.17514701580852268
1781099263717887700,27.1578876953125,1.9342022221952675,1.1822066278070211,0.11999679099470376
1781099263742963700,27.182963623046874,1.610257268321514,0.5513172469601034,0.8317316866651177
1781099263768038700,27.20803857421875,1.4353414309203625,-0.5705906872287392,0.6254553730994462
1781099263793114600,27.233114501953125,1.2775450706243514,0.01849485711157322,-0.35965398063659665
1781099263818189600,27.258189453125,1.126286587664485,-0.34314562116712327,1.1325316195338964
1781099263843265800,27.283265869140624,1.2740519678115845,-0.2061155700460076,-0.7102253678902983
1781099263868341800,27.308341796875,0.09394611167609691,-0.0003565583527088165,0.4141223606660962
1781099263893416700,27.333416748046876,0.13432897546887396,-0.2048199772775173,1.2187862999245525
1781099263918492700,27.35849267578125,-0.8533861768513917,-1.0773363865345715,0.8694540990769862
1781099263943568000,27.38356787109375,-0.8138648983240127,-1.055375314617157,0.8954635696023702
1781099263968643000,27.40864306640625,1.6166566139698029,0.7317322662994266,0.11001403390169143
1781099263993719300,27.43371923828125,0.46483752564191816,0.6773313985481858,0.10192308190464973
1781099264018794200,27.458794189453126,-0.04170037613213062,0.2562739779219031,-0.3925529184147715
1781099264043870200,27.4838701171875,-0.4952379246026277,0.38644671049416063,0.843003314524889
1781099264068945200,27.508945068359374,1.081604565373063,0.4894184246689081,0.37265257841944693
1781099264094021400,27.534021484375,0.43014381340146063,-0.09877776961624622,0.4761763735190034
1781099264119097300,27.559097412109374,-0.2083276931375265,-0.1738704200014472,0.584655160677433
1781099264144172300,27.58417236328125,0.6276198576569557,0.28363018688112496,0.28130057488977905
1781099264169248300,27.609248291015625,1.0684463931143284,0.9583782909378409,0.049532969453930854
1781099264194323200,27.6343232421875,0.9097118751853704,-0.1605070805594325,0.1802992840051651
1781099264219399200,27.659399169921876,-0.590153173571825,-0.603260492426157,0.035356267802417275
1781099264244475400,27.684475341796876,-0.8490776660025119,-0.3703070382066071,0.4968053200498223
1781099264269550300,27.70955029296875,0.2761795786142349,0.19399068635776637,-1.0001032169893382
1781099264294626300,27.734626220703124,0.17786182772517203,-0.1565099737472832,-0.7373097741708159
1781099264319701200,27.759701171875,-0.7115384963154793,0.5759221113845706,0.37678719400614497
1781099264344777500,27.784777587890623,-1.8589456134200095,-0.889649768757075,0.28045447945445773
1781099264369852400,27.809852294921875,-1.3630325660347937,0.5332784630529582,-1.519457930238545
1781099264394928000,27.83492822265625,-0.3712906424164772,0.47897944824099536,-0.2969958644106984
1781099264420004400,27.86000439453125,1.5154150845885277,1.0627094568975268,-0.38439123926907776
1781099264445079300,27.885079345703126,-0.7537912456333636,0.1420017020538449,-0.16632278110086918
1781099264470155300,27.9101552734375,-2.71143922534585,-0.45670799520015715,-0.10046236170232295
1781099264495230200,27.935230224609374,-1.8964935460478067,0.12686726128607986,0.6241045430123806
1781099264520306400,27.960306396484373,0.8384370295226573,0.2681424026310444,-1.1833043599158524
1781099264545382100,27.985382080078125,1.448535259014368,0.8730341495208441,-1.7838760516494512
1781099264570457300,28.010457275390625,-2.2753227672755716,0.19515286200493573,1.5771648537978529
1781099264595533000,28.035532958984376,-1.8730840288877486,-0.23910043254196642,-0.7300210784673691
1781099264620608300,28.060608154296876,-0.4882581487178802,0.6829210352487862,-1.9944813343301415
1781099264645684200,28.085684326171876,0.2948468696832657,1.3608207352042196,-0.5345365002900362
1781099264670760200,28.11076025390625,-0.16240940704941748,0.5833446626007557,-1.0717191311746834
1781099264695835400,28.13583544921875,-0.8776537721455097,0.7009469596743583,-1.660146503867209
1781099264720911400,28.160911376953123,-0.19265023153424263,2.3005746974319217,-1.1988324761763214
1781099264745986300,28.185986328125,-0.8121849824130535,0.6769422531001269,-0.2969073093444109
1781099264771062000,28.21106201171875,-1.3641186077058314,0.661403761576116,-1.043952003327012
1781099264796138200,28.23613818359375,-1.097253969925642,-0.16784414544925091,-0.3427569141104817
1781099264821213200,28.261213134765626,1.8829250394225119,1.5571356267258525,-1.9563591089457273
1781099264846289200,28.2862890625,1.5729858145475386,1.6048048481345176,-2.9985172145932912
1781099264871364400,28.3113642578125,-0.8708382469117641,0.7295300800800323,-1.4427987611889839
1781099264896440300,28.3364404296875,-3.2048598713934418,0.7340148242786526,-0.6774246297895908
1781099264921516300,28.361516357421873,-0.7604021882057189,0.6411114996537566,-1.9548671168223022
1781099264946591200,28.38659130859375,0.25484102250933643,1.9319737324908375,-1.9005130108222363
1781099264971667000,28.4116669921875,0.30299510482549663,0.3719301093637943,-1.1463941406697034
1781099264996742000,28.436741943359376,-0.8375988251328468,0.26514000594466924,-1.9210843819469212
1781099265021818000,28.461818115234376,-1.4302905772715806,0.6207483644522727,-1.3428279823958873
1781099265046893000,28.48689306640625,-1.1563070473968982,1.1414181058228015,-0.5243884696327149
1781099265071969000,28.511968994140624,-0.8988461977779865,0.3079392832294106,-0.8978845131389797
1781099265097045200,28.537045166015623,-2.2425345963954926,0.16562442357316612,-1.7109445248208939
1781099265122120200,28.5621201171875,-1.7982511984825134,0.6660944036103784,1.7883378533639012
1781099265147196200,28.587196044921875,0.9569839139699935,2.0206173538446426,-1.9345617031574247
1781099265172271000,28.61227099609375,-0.3133598469734192,-0.5743310428008437,-2.3074187181077894
1781099265197347000,28.63734716796875,-1.8785645061254501,3.930998555469513,-0.013917612323909997
1781099265222423000,28.662423095703126,-1.1413935559034347,-1.377818777886778,-0.5143456529155374
1781099265247498000,28.687498046875,1.1287205368131399,2.604522572937608,-4.3722038611114025
1781099265272574200,28.71257421875,1.8423545441031455,1.6459709712594746,-1.0648559674069284
1781099265297649200,28.737649169921873,2.2698189091622827,1.3012377886399626,-2.040954916213453
1781099265322725000,28.76272509765625,0.9341127414703368,1.5153959414966403,-6.671479166382551
1781099265347801000,28.787801025390625,0.28561610000133514,1.1579399092957376,-0.9456257768705487
1781099265372876300,28.812876220703124,-2.3640941066622734,0.8438840428821742,-2.0235368945531547
1781099265397952000,28.837951904296876,-3.4498084454417226,-0.19403861715272067,-1.2891690190531313
1781099265423027000,28.86302685546875,1.4625275440096854,1.4518758016139268,-0.8710133112177252
1781099265448103200,28.888103271484376,0.3038046676427126,2.2288762195296585,-2.4208472366280853
1781099265473179100,28.91317919921875,-1.3320809629321098,0.06936711234524846,-0.2410742168329656
1781099265498254000,28.938254150390627,-2.258088723880052,0.26557649766579267,-2.0851336651578545
1781099265523330000,28.963330078125,-1.412132404768467,0.9086344552122056,-1.8546153291307388
1781099265548405200,28.9884052734375,-0.7106313183426857,1.6428060774877666,-1.2886699834898114
1781099265573481000,29.01348095703125,-1.3735668195307253,1.4544019590906798,-0.8013290957473218
1781099265598557000,29.038556884765626,-0.9319488414347171,1.610701212696731,-1.1466589290857314
1781099265623632100,29.063632080078126,-0.4266027797937393,1.6313767748482524,-1.8481645455561577
1781099265648708000,29.0887080078125,-0.46599254089593883,0.6986931893981992,-2.4367355645030737
1781099265673783000,29.113782958984373,-1.0856944650352,0.012750175979733467,-2.220506596721709
1781099265698859000,29.13885888671875,-0.23752046987414357,0.7870192692354321,-2.4651953507900237
1781099265723935200,29.163935302734377,0.87103230817914,1.213458675161004,-2.1499533433318136
1781099265749010200,29.18901025390625,0.8842635456740856,1.203207476390153,-3.4735113925904035
1781099265774086000,29.2140859375,-2.241522204482555,0.8849742512267083,-0.7107071600578725
1781099265799161000,29.2391611328125,-1.5448890163540838,0.9485216444425284,-1.777756253594905
1781099265824237000,29.264237060546876,0.9260130216449498,2.360040885748714,-3.411506187315285
1781099265849313000,29.28931298828125,1.2990730118215084,1.873553399965167,-1.8949400329954922
1781099265874388000,29.314387939453123,-1.816545564585924,2.150987654815614,-1.9481191038668155
1781099265899464200,29.339464111328127,-2.5461574777305125,1.7331377980589866,-1.6221742083474993
1781099265924539100,29.3645390625,-1.3803881899833679,2.3365035044252873,-1.6319224260322749
1781099265949615000,29.389614990234374,-0.32351182315349575,2.740527372664213,-1.5570641689248381
1781099265974689800,29.414689697265626,0.43504269135892387,2.867125753881037,-2.152902548526227
1781099265999765800,29.439765869140626,0.09360884254574775,3.015776392430067,-1.9155001520738004
1781099266024841700,29.464841796875,-1.3695277732729911,2.763968454006314,-0.8477038934312761
1781099266049916700,29.489916748046873,-1.6367606598436832,2.568596688553691,-1.174833687886223
1781099266074993000,29.514992919921873,-0.5337818825304508,3.7278058871328827,-1.9732441927731037
1781099266100068900,29.54006884765625,0.546407555347681,4.176554447761178,-1.7741063527852297
1781099266125143800,29.565143798828124,-0.7582359500825405,3.657315469846129,-2.3743939668804406
1781099266150220000,29.590219970703124,-1.4158382735490798,3.0073087160751224,-1.8222201030910015
1781099266175295000,29.615294921875,-1.1301865177124737,2.8693443067133426,-2.792510365618765
1781099266200370700,29.64037060546875,-0.00014496142864227294,4.027850909981131,-2.9446052994027734
1781099266225447000,29.665447021484376,0.20683190162181853,3.713213882678747,-2.249353628760576
1781099266250521900,29.69052197265625,-1.4039549435317515,3.7950375948846338,-1.3306917005307972
1781099266275597800,29.715597900390627,-0.8382733633935451,3.532951715813577,-1.3919132080823182
1781099266300672800,29.7406728515625,-0.48357846646904945,3.4167297671824692,-1.541990372303128
1781099266325749000,29.7657490234375,0.009427169036865234,2.692885916045308,-1.965519589870423
1781099266350825000,29.790824951171874,-0.8721148427188395,2.5410753521606324,-2.2114996989235283
1781099266375900000,29.81589990234375,-0.3778519006282091,2.4534008680999277,-3.0901597255021334
1781099266400976000,29.840975830078126,-0.28114918372035025,2.7463860355645417,-3.314918036697805
1781099266426050800,29.86605078125,-0.5094669409632683,2.576787009271979,-1.9312401575192808
1781099266451126800,29.891126708984373,-1.4758920524954795,2.2436679843395946,-2.014856452230364
1781099266476200700,29.91620068359375,-1.1233476116031407,2.4220602656796575,-2.9441034873604774
1781099266501276700,29.941276611328124,0.33434067568182946,2.609781224118173,-1.9885054747909305
1781099266526353000,29.966352783203124,0.6311340032577514,2.574357736298442,-2.9887495615556836
1781099266551427800,29.991427734375,-0.35865211011767384,2.289486609445512,-2.81382758667469
1781099266576503800,30.01650390625,-0.7956137868404388,2.3217563094094396,-2.9861089839190242
1781099266601579000,30.0415791015625,-0.5083382291942835,2.2320107181631026,-3.3741640063926575
1781099266626655000,30.066655029296875,0.11386603315472602,2.179451825016737,-3.5135745229095217
1781099266651730700,30.091730712890627,-0.24773498989641665,3.3029435212656852,-3.3334999875709412
1781099266676805600,30.1168056640625,0.26760698058009147,2.8170269672378896,-2.4049359662689267
1781099266701881900,30.1418818359375,-0.7519149303674697,1.6040937772557138,-3.092537560549378
1781099266726956800,30.166956787109374,-1.77078568392992,1.3231383625417947,-2.2802086396209895
1781099266752032800,30.19203271484375,-2.399505611783266,1.4738202146574855,-1.9084679153494535
1781099266777109000,30.21710888671875,0.04626841470003128,2.763595236779749,-2.6546260357558724
1781099266802184000,30.242183837890625,2.103302651315927,3.3115894767969847,-4.431587777972221
1781099266827260000,30.267260009765625,-1.1334265225470066,3.3187159676760434,-2.0536985163219272
1781099266852335900,30.2923359375,-4.651258702901005,1.0318149908095597,-0.540771595287323
1781099266877410800,30.317410888671876,-3.1053333292365073,1.4277085979543624,-1.4437690675258636
1781099266902486800,30.34248681640625,3.028012773668766,4.2202270007491105,-3.33111513826102
1781099266927561700,30.367561767578124,3.8936744947254653,4.3872506235957145,-3.069796444170177
1781099266952638000,30.392637939453124,-2.0553309398293496,2.438451282379776,-4.254167556534707
1781099266977714400,30.41771435546875,-3.3291713107168674,1.3959239050284027,-2.4918685459211467
1781099267002789600,30.44278955078125,-1.527480785435438,1.6111567013792694,-3.5012066242456434
1781099267027865600,30.467865478515623,0.7309001993894576,1.9290711429171263,-3.3786002352744338
1781099267052940500,30.4929404296875,3.386845501050353,3.683602880530059,-3.66094096686691
1781099267078016500,30.5180166015625,0.8811679177463054,2.9239594017371533,-3.2501877903729675
1781099267103092700,30.5430927734375,-4.355294811886549,1.7684565103299914,-1.7094946182735262
1781099267128167700,30.568167724609374,-5.666743321156502,1.6909668818056582,0.44004086497239764
1781099267153243600,30.59324365234375,-2.9047967283666134,0.6464166933897882,-1.279054598404467
1781099267178319600,30.618319580078126,1.7700702291369437,2.6691134107917547,-3.718368781223893
1781099267203394600,30.64339453125,4.697724101477861,4.537070013663173,-4.1840018411576745
1781099267228470500,30.668470458984373,0.02514496265053749,3.193971689893305,-3.2615134865075346
1781099267253545500,30.69354541015625,-5.620087368443608,1.38826374566406,-2.199492742526531
1781099267278621700,30.71862158203125,-4.0818566409349435,1.6888696172654627,-1.189713715501502
1781099267303697700,30.74369775390625,0.008102057912945746,1.7891488774858415,-1.9905743900194763
1781099267328772600,30.768772705078124,2.856457937133312,3.0518931232109665,-3.476466150742769
1781099267353848600,30.7938486328125,2.4646003075063225,3.122842097920179,-4.333928783252835
1781099267378924500,30.818924560546876,-0.22708207796812055,3.169696203553676,-4.776622866147756
1781099267403999500,30.84399951171875,-2.777788305044174,1.4962939122721552,-2.6582646845191715
1781099267429075700,30.86907568359375,-2.3087159183114765,1.1117963630843908,-2.3257097232103345
1781099267454150700,30.894150634765627,0.4681950193762779,2.289453583958745,-2.913917023411393
1781099267479226600,30.9192265625,1.8828396992266176,2.591450033135712,-2.545171681563556
1781099267504302800,30.944302734375,0.2567418876945972,2.093000745271146,-3.3777699219301343
1781099267529377800,30.969377685546874,-1.5459809032440184,1.277588617505133,-3.1468963427245615
1781099267554453500,30.99445361328125,-1.8881196854561566,2.5715046849548817,-2.035210965733975
1781099267579529500,31.019529541015626,-0.37836218823790546,3.1997417977273463,-1.540737449632585
1781099267604604700,31.044604736328125,0.3783212717056274,1.5876418241485952,-1.7833365379452704
1781099267629680600,31.0696806640625,-1.5048855072677134,1.715385868269205,-2.537266023005545
1781099267654755600,31.094755615234376,-2.102991685670614,2.4402859504610297,-1.766783754812181
1781099267679831800,31.119831787109376,-0.14419804305434225,2.5407079801529644,-2.227975032906234
1781099267704907800,31.14490771484375,1.8110802849173544,3.435466031834483,-3.4283985776662824
1781099267729982700,31.169982666015624,-0.27302082232236863,2.7999221031799912,-1.4865563621118665
