time,seconds_elapsed,z,y,x
1781099236662109700,0.102109619140625,0.0005254416610114276,0.04222681745886803,-0.01774384267628193
1781099236687184600,0.1271845703125,-0.009892844595015049,0.014592790976166725,-0.023566579446196556
1781099236712259600,0.152259521484375,-0.026621224358677864,-0.02742816135287285,0.011494203470647335
1781099236737334500,0.17733447265625,-0.023024359717965126,-0.006568686570972204,-0.001389371114782989
1781099236762409700,0.20240966796875,-0.028301678597927094,-0.01949167624115944,-0.03340376168489456
1781099236787484700,0.227484619140625,-0.016577644273638725,-0.0523364394903183,-0.04595896974205971
1781099236812559600,0.2525595703125,-0.0031619712244719267,-0.06314248591661453,0.02430161088705063
1781099236837634600,0.277634521484375,-0.01173282228410244,-0.06415341794490814,0.06254833191633224
1781099236862709500,0.30270947265625,-0.016643159091472626,-0.011323761194944382,0.034323617815971375
1781099236887784400,0.327784423828125,-0.010457967408001423,0.040406279265880585,-0.02893790788948536
1781099236912859600,0.352859619140625,0.003478088416159153,0.06305087357759476,-0.041782066226005554
1781099236937934600,0.3779345703125,-0.0026173547375947237,0.00561207951977849,-0.009750365279614925
1781099236963008800,0.4030087890625,-0.0035124430432915688,0.0250246599316597,0.018323613330721855
1781099236988083700,0.428083740234375,0.007759918924421072,0.06312756985425949,0.00012863067968282849
1781099237013159000,0.453158935546875,0.008006527088582516,0.05805877596139908,-0.016865799203515053
1781099237038233900,0.47823388671875,-0.0011014834744855762,0.03263384476304054,0.027113109827041626
1781099237063309800,0.503309814453125,-0.017552629113197327,0.015450594946742058,0.0786370187997818
1781099237088384800,0.528384765625,-0.011473963037133217,0.06906775385141373,0.045095305889844894
1781099237113459700,0.553459716796875,-0.010427873581647873,0.08414923399686813,0.0085426215082407
1781099237138535000,0.578534912109375,-0.022418489679694176,0.04285958409309387,0.016344884410500526
1781099237163609900,0.60360986328125,-0.03308418393135071,0.044386640191078186,-0.004918325692415237
1781099237188685000,0.62868505859375,-0.02893657609820366,0.07960374653339386,-0.06220132112503052
1781099237213760000,0.653760009765625,-0.023838752880692482,0.027056651189923286,-0.02586541883647442
1781099237238835000,0.6788349609375,-0.031923577189445496,-0.07127205282449722,0.056604158133268356
1781099237263910000,0.703909912109375,-0.018439993262290955,-0.20917825400829315,0.03995354101061821
1781099237288984800,0.72898486328125,-0.0004516721237450838,-0.22454681992530823,-0.025645442306995392
1781099237314060000,0.75406005859375,0.009166067466139793,-0.01564979925751686,-0.1359594315290451
1781099237339135000,0.779135009765625,0.002716158051043749,0.1511136144399643,-0.19642969965934753
1781099237364211000,0.8042109375,0.025188444182276726,0.14477236568927765,-0.09366737306118011
1781099237389286000,0.829285888671875,0.01224734541028738,0.06920064240694046,0.009617473930120468
1781099237414360800,0.85436083984375,0.017249559983611107,0.00950748473405838,-0.00615163566544652
1781099237439436000,0.87943603515625,0.010654774494469166,-0.00821105856448412,-0.05553622916340828
1781099237464511000,0.904510986328125,-0.014229003340005875,-0.0012420982820913196,-0.04368356615304947
1781099237489586000,0.9295859375,-0.04860162362456322,-0.06691431999206543,0.07612699270248413
1781099237514660900,0.954660888671875,-0.07064807415008545,-0.10552562773227692,0.08028791099786758
1781099237539737000,0.979737060546875,-0.09880141168832779,-0.08072759956121445,0.001222657272592187
1781099237564812000,1.00481201171875,-0.09418801963329315,0.052312739193439484,-0.07566573470830917
1781099237589887000,1.029886962890625,-0.10212130844593048,0.13605263829231262,-0.15031494200229645
1781099237614962000,1.0549619140625,-0.10783245414495468,0.10923274606466293,-0.12744930386543274
1781099237640036900,1.080036865234375,-0.13105176389217377,-0.018632274121046066,0.03804538771510124
1781099237665111800,1.10511181640625,-0.15641917288303375,-0.17925125360488892,0.20873670279979706
1781099237690188000,1.13018798828125,-0.1373962014913559,-0.25517743825912476,0.21542230248451233
1781099237715263000,1.155262939453125,-0.09420133382081985,-0.1570087969303131,0.09433235973119736
1781099237740338000,1.180337890625,-0.05503502115607262,-0.0019241338595747948,-0.12404631078243256
1781099237765412900,1.205412841796875,-0.03248923271894455,0.023616911843419075,-0.16326509416103363
1781099237790488800,1.23048876953125,-0.05716102570295334,-0.07502257823944092,-0.08756206929683685
1781099237815564000,1.25556396484375,-0.050882089883089066,-0.10349470376968384,-0.0644889771938324
1781099237840639000,1.280638916015625,-0.0521705262362957,-0.07160734385251999,-0.007590008899569511
1781099237865714000,1.3057138671875,-0.04324787110090256,-0.0011169298086315393,-0.04200071468949318
1781099237890790000,1.330789794921875,-0.028200479224324226,0.05451836809515953,-0.15357810258865356
1781099237915864800,1.35586474609375,-0.0292953047901392,0.047817058861255646,-0.18580874800682068
1781099237940940000,1.38093994140625,-0.04326038807630539,0.027634823694825172,-0.16004052758216858
1781099237966015000,1.406014892578125,-0.013607421889901161,0.07392935454845428,-0.18547238409519196
1781099237991091200,1.43109130859375,-0.025954902172088623,0.07813262194395065,-0.15596775710582733
1781099238016166100,1.456166259765625,-0.034744929522275925,0.01810896210372448,-0.07825299352407455
1781099238041241000,1.481240966796875,-0.01423672679811716,0.038180939853191376,-0.06436487287282944
1781099238066317300,1.5063173828125,-0.015078285709023476,0.06649034470319748,-0.052142031490802765
1781099238091392300,1.531392333984375,-0.017601363360881805,0.07852703332901001,-0.041420675814151764
1781099238116467200,1.55646728515625,-0.02605450339615345,0.026073679327964783,-0.0231748279184103
1781099238141543200,1.581543212890625,-0.031535554677248,-0.04844982549548149,-0.013199158944189548
1781099238166618000,1.6066181640625,-0.012121377512812614,0.003780889790505171,-0.027770910412073135
1781099238191693300,1.631693359375,0.0024610271211713552,0.15281164646148682,-0.10006880760192871
1781099238216769300,1.656769287109375,0.00737322773784399,0.09267400950193405,-0.09381064772605896
1781099238241844200,1.68184423828125,0.0030929953791201115,-0.04850788041949272,0.031325966119766235
1781099238266919200,1.706919189453125,-0.006100503262132406,-0.15826714038848877,0.032815203070640564
1781099238291995400,1.731995361328125,0.02251356467604637,-0.06263355165719986,-0.015024756081402302
1781099238317070300,1.7570703125,0.023435285314917564,-0.012047342024743557,-0.07417276501655579
1781099238342145300,1.782145263671875,0.014932610094547272,-0.02689739502966404,-0.08740334957838058
1781099238367221000,1.807220947265625,-0.002261023735627532,-0.05708565562963486,-0.07537038624286652
1781099238392296200,1.832296142578125,-0.03801023215055466,-0.1115259975194931,-0.0975252240896225
1781099238417371400,1.857371337890625,-0.07770837843418121,-0.02207653969526291,-0.24016839265823364
1781099238442447000,1.882447021484375,-0.12292512506246567,0.04914064705371857,-0.4707659184932709
1781099238467522000,1.90752197265625,-0.11807763576507568,0.1922951489686966,-0.35448405146598816
1781099238492597000,1.932596923828125,-0.2700496017932892,0.044793568551540375,-0.1520204246044159
1781099238517673200,1.957673095703125,-0.4024989902973175,-0.2082618623971939,-0.021633123978972435
1781099238542748200,1.982748046875,-0.42385727167129517,-0.4572676718235016,0.11837085336446762
1781099238567824100,2.00782421875,-0.30800044536590576,-0.3461046814918518,0.1136551946401596
1781099238592899300,2.0328994140625,-0.2295146882534027,0.07545507699251175,-0.059305135160684586
1781099238617974300,2.057974365234375,-0.21885085105895996,0.30745553970336914,-0.17259573936462402
1781099238643050200,2.08305029296875,-0.30944040417671204,0.004561462439596653,-0.12211179733276367
1781099238668125200,2.108125244140625,-0.21987590193748474,-0.07949242740869522,0.138450026512146
1781099238693200100,2.1332001953125,-0.03584614768624306,-0.12747620046138763,0.16664570569992065
1781099238718276400,2.1582763671875,0.07990202307701111,0.09271609038114548,-0.013865748420357704
1781099238743351300,2.183351318359375,0.07239110767841339,0.2452736794948578,-0.059484899044036865
1781099238768426200,2.20842626953125,-0.0023252058308571577,0.059543754905462265,-0.0881732702255249
1781099238793502200,2.233502197265625,-0.003043993143364787,-0.07340790331363678,-0.06979852169752121
1781099238818577400,2.258577392578125,0.017978200688958168,-0.2731598913669586,-0.023023294284939766
1781099238843653000,2.283653076171875,0.042693134397268295,-0.22322829067707062,0.007739146240055561
1781099238868728000,2.30872802734375,0.07274717092514038,-0.07557918131351471,-0.00803475733846426
1781099238893803000,2.333802978515625,0.07693605870008469,-0.042814575135707855,-0.0887136235833168
1781099238918879200,2.358879150390625,0.05932164564728737,-0.06554119288921356,-0.11593379080295563
1781099238943955000,2.383954833984375,0.021274661645293236,-0.11427623778581619,-0.018189921975135803
1781099238969030000,2.40902978515625,-0.021091170608997345,-0.17853271961212158,0.12386681884527206
1781099238994105900,2.43410595703125,-0.04904291033744812,-0.2815813422203064,0.22499796748161316
1781099239019180800,2.459180908203125,-0.022588400170207024,-0.3709021806716919,0.28145459294319153
1781099239044255700,2.484255859375,0.0015097459545359015,-0.21390482783317566,0.17244048416614532
1781099239069332000,2.50933203125,0.013875069096684456,-0.10643083602190018,0.02755040116608143
1781099239094407000,2.534406982421875,-0.019698336720466614,-0.019871443510055542,0.04591342806816101
1781099239119481900,2.55948193359375,-0.029170934110879898,0.06635106354951859,0.04837419092655182
1781099239144558000,2.58455810546875,-0.019293537363409996,0.1509101539850235,0.015426360070705414
1781099239169633000,2.609633056640625,0.004560663364827633,0.2334234118461609,-0.023630760610103607
1781099239194708000,2.6347080078125,0.002151035238057375,0.2267734855413437,-0.13042990863323212
1781099239219783700,2.65978369140625,-0.020312462002038956,0.14917856454849243,-0.11384880542755127
1781099239244858600,2.684858642578125,-0.02797331102192402,-0.014474546536803246,0.04188140481710434
1781099239269933800,2.709933837890625,-0.03519447147846222,-0.052679188549518585,0.16670162975788116
1781099239295009800,2.735009765625,-0.0710829645395279,-0.13104429841041565,0.27266746759414673
1781099239320084700,2.760084716796875,-0.07290882617235184,-0.039205193519592285,0.27997279167175293
1781099239345159700,2.78515966796875,-0.039393745362758636,0.15700532495975494,0.0853913277387619
1781099239370236000,2.81023583984375,-0.003569700988009572,0.20762403309345245,-0.1774458885192871
1781099239395310800,2.835310791015625,0.019363844767212868,0.1791473776102066,-0.39340001344680786
1781099239420385800,2.8603857421875,-0.029257221147418022,0.08247703313827515,-0.48778432607650757
1781099239445461800,2.885461669921875,-0.19608083367347717,0.4145607054233551,-0.15487879514694214
1781099239470537000,2.910536865234375,-0.42549964785575867,0.4808531701564789,0.2301466464996338
1781099239495612000,2.93561181640625,-0.5873367190361023,-0.031208518892526627,0.37864744663238525
1781099239520687900,2.96068798828125,-0.6749323606491089,-0.44351086020469666,0.426448255777359
1781099239545762800,2.9857626953125,-0.7910392880439758,-0.7531877756118774,0.33957940340042114
1781099239570837800,3.010837646484375,-0.8959696888923645,-0.6143116354942322,0.29012957215309143
1781099239595914000,3.0359140625,-0.9180566072463989,-0.45902615785598755,-0.026380740106105804
1781099239620989000,3.060989013671875,-0.8953022956848145,-0.03744084760546684,-0.13849370181560516
1781099239646063900,3.08606396484375,-0.8011592626571655,-0.051656801253557205,-0.1324390023946762
1781099239671139800,3.111139892578125,-0.7863374352455139,-0.06006599962711334,-0.08054491132497787
1781099239696215000,3.136215087890625,-0.7286027669906616,-0.6441680788993835,0.15635338425636292
1781099239721290000,3.1612900390625,-0.49089276790618896,-0.892725944519043,0.4009929597377777
1781099239746365000,3.186364990234375,-0.535862922668457,-0.6433334350585938,0.3324037790298462
1781099239771440600,3.211440673828125,-0.6159178018569946,-0.46122193336486816,0.2019573599100113
1781099239796515800,3.236515869140625,-0.7176681160926819,-0.6244641542434692,0.19673515856266022
1781099239821590800,3.2615908203125,-0.7994135618209839,-0.6292370557785034,0.2026630938053131
1781099239846666800,3.286666748046875,-0.6367133259773254,-0.5661864280700684,0.0801909789443016
1781099239871741700,3.31174169921875,-0.5628923773765564,-0.281195729970932,-0.1250511258840561
1781099239896816600,3.336816650390625,-0.4111507833003998,0.05717939883470535,-0.24392159283161163
1781099239921266700,3.3612666015625,-0.28071022033691406,0.03371402248740196,-0.30528560280799866
1781099239946342000,3.386341796875,-0.2535332143306732,-0.2428443431854248,-0.2211528867483139
1781099239971417900,3.41141796875,-0.3041186034679413,-0.5067899823188782,0.02093803882598877
1781099239996492800,3.436492919921875,-0.31540802121162415,-0.6400646567344666,0.20913590490818024
1781099240021567700,3.461567626953125,-0.14010144770145416,-0.3737770617008209,0.12673930823802948
1781099240046644000,3.48664404296875,-0.044558145105838776,-0.08799004554748535,-0.057788997888565063
1781099240071719000,3.511718994140625,-0.038957517594099045,0.14623390138149261,-0.2158614546060562
1781099240096793900,3.5367939453125,-0.11055634170770645,0.3474820554256439,-0.22961321473121643
1781099240121869800,3.561869873046875,-0.1648201048374176,0.21662364900112152,-0.275113582611084
1781099240146944800,3.58694482421875,-0.15760427713394165,0.13448883593082428,-0.28234195709228516
1781099240172020000,3.61202001953125,-0.042394861578941345,0.22323548793792725,-0.34368252754211426
1781099240197095000,3.637094970703125,0.23303911089897156,0.9578932523727417,-0.4727550446987152
1781099240222171000,3.6621708984375,0.2634987533092499,1.7216907739639282,-0.022418489679694176
1781099240247245800,3.687245849609375,0.4417971074581146,1.5551502704620361,0.05034945532679558
1781099240272321000,3.712321044921875,0.1656470149755478,1.054417610168457,0.39111635088920593
1781099240297397000,3.73739697265625,-0.12870152294635773,0.29394960403442383,0.7378977537155151
1781099240321219000,3.761218994140625,-0.1618456244468689,-0.0998014286160469,0.7858918905258179
1781099240346294000,3.7862939453125,-0.025905633345246315,0.023735688999295235,1.44755220413208
1781099240371369000,3.811368896484375,-0.3060760498046875,-0.5693361759185791,1.8401585817337036
1781099240396444700,3.836444580078125,-0.5321094393730164,-1.6462572813034058,1.706463098526001
1781099240421520000,3.861519775390625,-0.9793343544006348,-2.1542727947235107,1.3304153680801392
1781099240446595000,3.886594970703125,-1.8935000896453857,-2.280846357345581,0.3772426247596741
1781099240471670800,3.9116708984375,-1.6584949493408203,-0.8317914605140686,-0.20457151532173157
1781099240496745700,3.936745849609375,-1.0940436124801636,0.04158792272210121,-0.8476532697677612
1781099240521820700,3.961820556640625,-0.7106807827949524,0.4518825113773346,-1.2513834238052368
1781099240546897000,3.98689697265625,-0.3714742064476013,-0.08155690878629684,-1.1763267517089844
1781099240571971800,4.011971923828125,-0.32237565517425537,-0.13379162549972534,-0.3635348081588745
1781099240597046800,4.037046875,-0.519063413143158,-0.6722707748413086,0.3246403932571411
1781099240622121700,4.062121826171875,0.04336904361844063,-1.3621102571487427,0.8867311477661133
1781099240647198000,4.087197998046875,0.45007288455963135,-0.9899478554725647,0.8943725824356079
1781099240672273000,4.11227294921875,0.03533561900258064,-1.3743211030960083,0.5632748007774353
1781099240697347800,4.137347900390625,-0.2898019850254059,-1.1762056350708008,0.816964864730835
1781099240722423800,4.162423828125,-0.44116994738578796,0.19057074189186096,0.9449790120124817
1781099240747499000,4.1874990234375,0.24792617559432983,-0.06533266603946686,0.11301390081644058
1781099240772574000,4.212573974609375,0.5984959006309509,-0.9129105806350708,0.03419312462210655
1781099240797649000,4.23764892578125,0.8254028558731079,-2.5903854370117188,0.48310089111328125
1781099240822724900,4.262724853515625,1.1261941194534302,-3.7161598205566406,0.991123616695404
1781099240847799800,4.2877998046875,1.3800218105316162,-3.9567108154296875,1.2460227012634277
1781099240872875000,4.312875,1.6493436098098755,-4.008363723754883,1.3192106485366821
1781099240897951000,4.337950927734375,2.413775682449341,-3.429685592651367,1.0119260549545288
1781099240923026000,4.36302587890625,3.193070650100708,-2.863036870956421,0.057260893285274506
1781099240948100400,4.388100341796875,4.070254802703857,-2.281702756881714,-0.09708580374717712
1781099240973176300,4.41317626953125,3.8595051765441895,-0.07351016998291016,-0.34758299589157104
1781099240998251500,4.43825146484375,2.3447182178497314,0.5684552192687988,-1.2789101600646973
1781099241023326500,4.463326416015625,1.8389558792114258,0.1383669376373291,-1.967670202255249
1781099241048401400,4.4884013671875,2.251862049102783,-1.500850796699524,-2.0298964977264404
1781099241088522500,4.5285224609375,2.782061815261841,-2.7488925457000732,0.6991186738014221
1781099241113597400,4.553597412109375,1.5899990797042847,-2.772352695465088,1.4058483839035034
1781099241138673400,4.57867333984375,1.3444526195526123,-4.0574116706848145,1.886400580406189
1781099241163748400,4.603748291015625,1.1940267086029053,-4.539895057678223,2.1016175746917725
1781099241188823300,4.6288232421875,1.0450342893600464,-5.435208320617676,2.4191625118255615
1781099241213899300,4.653899169921875,1.3069881200790405,-5.842284679412842,3.087054967880249
1781099241238974200,4.67897412109375,1.517594337463379,-5.210283279418945,3.5854263305664062
1781099241264049400,4.70404931640625,1.7918524742126465,-5.5400614738464355,2.994389772415161
1781099241289124400,4.729124267578125,0.40850600600242615,-5.613956928253174,-0.9445965886116028
1781099241314200300,4.754200439453125,1.867915391921997,0.5569822788238525,-2.4931674003601074
1781099241339275300,4.779275146484375,1.9293198585510254,1.5046333074569702,-0.8990408182144165
1781099241364350200,4.80435009765625,1.850892424583435,-0.042509909719228745,-1.7481598854064941
1781099241389426200,4.82942626953125,1.5087233781814575,-0.971486508846283,-0.8599027395248413
1781099241414501400,4.85450146484375,2.125352621078491,-1.6638298034667969,0.38991421461105347
1781099241439577300,4.879577392578125,2.131885290145874,-0.5719226002693176,-0.38580548763275146
1781099241464652300,4.90465234375,1.4514185190200806,0.9378617405891418,-0.9996220469474792
1781099241489727200,4.929727294921875,0.7439327239990234,-1.0595338344573975,0.2864623963832855
1781099241514803500,4.954803466796875,-0.019399264827370644,-3.5855634212493896,1.6692498922348022
1781099241539878400,4.97987841796875,1.2991302013397217,-3.3500733375549316,1.0978258848190308
1781099241564953300,5.004953369140625,1.5824353694915771,-0.44490954279899597,-0.17288443446159363
1781099241590029300,5.030029296875,0.775427520275116,-0.6833439469337463,0.4551728367805481
1781099241615104500,5.0551044921875,0.38225284218788147,-0.5170793533325195,0.05745024234056473
1781099241640180200,5.08018017578125,0.04861494153738022,-0.44121548533439636,0.02799008972942829
1781099241665255400,5.10525537109375,0.20117466151714325,-0.6104620099067688,0.17720407247543335
1781099241690330400,5.130330322265625,0.1631481796503067,-0.4511176347732544,0.24258947372436523
1781099241715406300,5.15540625,-0.09209370613098145,0.004031759686768055,-0.11754047870635986
1781099241740481300,5.180481201171875,-0.0483773872256279,-0.10232290625572205,-0.05372368171811104
1781099241765556200,5.20555615234375,0.9964970946311951,0.2803634703159332,-0.2385806143283844
1781099241790632200,5.230632080078125,2.2548828125,0.35163286328315735,0.04519757255911827
1781099241815707400,5.255707275390625,2.4991867542266846,-0.9760341644287109,0.2781139016151428
1781099241840783400,5.280783447265625,2.9239542484283447,-1.2802369594573975,0.3733038008213043
1781099241865858300,5.3058583984375,3.3962488174438477,-0.10703111439943314,-0.6748567223548889
1781099241890934300,5.330934326171875,3.164515256881714,-1.8465375900268555,-1.34724760055542
1781099241916009500,5.356009521484375,2.922321081161499,-0.006858438719063997,-0.3989282250404358
1781099241941084000,5.381083984375,2.3171327114105225,0.09967972338199615,0.09459947794675827
1781099241966160000,5.406159912109375,3.5939059257507324,0.003323092358186841,-1.9759172201156616
1781099241991234800,5.43123486328125,1.2076852321624756,1.1236933469772339,-1.9002735614776611
1781099242016311000,5.45631103515625,0.12657178938388824,-0.8118265867233276,-1.3946194648742676
1781099242041386000,5.481385986328125,-0.7479501366615295,-1.2509243488311768,-0.42782989144325256
1781099242066461000,5.5064609375,-1.2060798406600952,0.15236690640449524,0.054971374571323395
1781099242091536600,5.53153662109375,-0.09801817685365677,0.33370739221572876,-0.4676838517189026
1781099242116611800,5.55661181640625,-0.3443416655063629,0.2914981544017792,0.012309396639466286
1781099242141687800,5.581687744140625,-0.1924581229686737,0.28377872705459595,-0.035106588155031204
1781099242166762800,5.6067626953125,-0.025164209306240082,0.013399162329733372,0.11007776856422424
1781099242191838700,5.631838623046875,0.020547885447740555,-0.060336045920848846,0.13079290091991425
1781099242216914000,5.656913818359375,-0.05118915066123009,0.021939121186733246,-0.08601797372102737
1781099242241988900,5.68198876953125,-0.10130824148654938,0.009724532254040241,-0.041194841265678406
1781099242267064800,5.70706494140625,-0.08116542547941208,-0.09365405142307281,0.03696014732122421
1781099242292139800,5.732139892578125,-0.07119081914424896,0.017124125733971596,0.007297594100236893
1781099242317216000,5.757216064453125,-0.11316144466400146,-0.06030488386750221,-0.026442259550094604
1781099242342291000,5.782291015625,-0.1642667055130005,-0.08930777758359909,-0.027295537292957306
1781099242367367000,5.807366943359375,-0.20988452434539795,-0.021742846816778183,0.042517900466918945
1781099242392441900,5.83244189453125,-0.21047094464302063,0.028673190623521805,0.11237527430057526
1781099242417517000,5.85751708984375,-0.19601450860500336,0.06313236057758331,0.10017693787813187
1781099242442592800,5.8825927734375,-0.2044982761144638,-0.0037326866295188665,0.07130906730890274
1781099242467667700,5.907667724609375,-0.21517755091190338,-0.05962897464632988,0.05013107880949974
1781099242492743700,5.93274365234375,-0.1549443155527115,-0.0007179882377386093,0.10349123924970627
1781099242517819000,5.95781884765625,-0.05534767732024193,0.12761521339416504,0.13593199849128723
1781099242542893800,5.982893798828125,0.026428943499922752,0.10556664317846298,0.08986704051494598
1781099242567969800,6.0079697265625,0.10264195501804352,0.020019514486193657,0.06711165606975555
1781099242593044700,6.033044677734375,0.18905141949653625,0.0024431839119642973,0.061166685074567795
1781099242618121000,6.058120849609375,0.25670555233955383,0.014280402101576328,0.034501250833272934
1781099242643196000,6.08319580078125,0.2908395528793335,0.06653428822755814,0.04758083447813988
1781099242668271900,6.10827197265625,0.3103432059288025,0.031739819794893265,0.043051328510046005
1781099242693346800,6.133346923828125,0.28786587715148926,-0.03335209935903549,0.015896141529083252
1781099242718422000,6.158422119140625,0.2678234577178955,-0.05404539033770561,0.02257668226957321
1781099242743497700,6.183497802734375,0.25561952590942383,-0.00133877107873559,0.09639418125152588
1781099242768573000,6.208572998046875,0.20933671295642853,-0.018336130306124687,0.1402580440044403
1781099242793648600,6.233648681640625,0.14426396787166595,-0.06886961311101913,0.15103398263454437
1781099242818723800,6.258723876953125,0.0594305694103241,-0.08905290812253952,0.16716767847537994
1781099242843799800,6.2837998046875,-0.010906710289418697,-0.027784759178757668,0.23490358889102936
1781099242868874800,6.308874755859375,0.02478311024606228,0.08174173533916473,0.3147432804107666
1781099242893949700,6.33394970703125,0.08411567658185959,0.10454531759023666,0.34449800848960876
1781099242919026000,6.35902587890625,0.10475277900695801,0.08594340085983276,0.31197547912597656
1781099242944101600,6.3841015625,0.06864510476589203,0.06785787642002106,0.27755090594291687
1781099242969177600,6.409177490234375,0.039144206792116165,0.0672789067029953,0.28375527262687683
1781099242994252800,6.434252685546875,0.047747280448675156,0.043659597635269165,0.29341962933540344
1781099243019328500,6.45932861328125,0.03692525997757912,-0.01884213089942932,0.2819909453392029
1781099243044403500,6.484403564453125,-0.002238120650872588,-0.053951382637023926,0.21664495766162872
1781099243069478400,6.509478515625,-0.08052840083837509,-0.00987287051975727,0.023028885945677757
1781099243094554600,6.5345546875,-0.1382223218679428,-0.04536748304963112,-0.21712619066238403
1781099243119629600,6.559629638671875,-0.11932479590177536,-0.0689348578453064,-0.2765570282936096
1781099243144705500,6.58470556640625,-0.05751655623316765,-0.08720574527978897,-0.1540904939174652
1781099243169780500,6.609780517578125,-0.008800948038697243,-0.07931053638458252,0.05621853098273277
1781099243194855700,6.634855712890625,0.015337144955992699,-0.011275025084614754,0.13602760434150696
1781099243219931600,6.659931640625,0.025021996349096298,0.03569008782505989,0.08757725358009338
1781099243245006600,6.685006591796875,0.03295528516173363,0.019723370671272278,0.009976201690733433
1781099243270082600,6.71008251953125,0.044911548495292664,-0.02942233718931675,-0.05751895159482956
1781099243295157800,6.73515771484375,0.054421961307525635,-0.03742220625281334,-0.05904893949627876
1781099243320232700,6.760232666015625,0.0752478837966919,-0.03399338573217392,-0.015855129808187485
1781099243345308400,6.785308349609375,0.06577262282371521,-0.06885655969381332,0.03437688201665878
1781099243370383600,6.810383544921875,0.017429057508707047,-0.06980544328689575,0.046964846551418304
1781099243395459600,6.83545947265625,-0.0413287989795208,-0.08259128034114838,0.03045830689370632
1781099243420534500,6.860534423828125,-0.09329399466514587,-0.11342376470565796,0.015985092148184776
1781099243445609500,6.885609375,-0.12252964079380035,-0.11838603019714355,0.01088620349764824
1781099243470685400,6.910685546875,-0.1473977118730545,-0.1021447405219078,0.004248807206749916
1781099243495760600,6.9357607421875,-0.1521674245595932,-0.07448648661375046,0.015431154519319534
1781099243520836600,6.960836669921875,-0.1348683387041092,-0.06328815966844559,0.04219458997249603
1781099243545911600,6.98591162109375,-0.10440683364868164,-0.04716777801513672,0.045154161751270294
1781099243570986500,7.010986572265625,-0.06634306907653809,-0.024107201024889946,0.03423147276043892
1781099243596062700,7.036062744140625,-0.02731790766119957,0.021589448675513268,0.029562419280409813
1781099243621137700,7.0611376953125,0.01303164567798376,0.06240345537662506,0.02965376526117325
1781099243646213600,7.086213623046875,0.0462907999753952,0.060082510113716125,0.01636192947626114
1781099243671288600,7.11128857421875,0.06058318540453911,0.03133182227611542,0.004820055328309536
1781099243696363800,7.13636376953125,0.06584160029888153,0.04487239941954613,0.011782623827457428
1781099243721439500,7.161439453125,0.04898352175951004,0.05513888597488403,0.017116935923695564
1781099243746514400,7.186514404296875,0.018199510872364044,0.058581288903951645,0.00842411071062088
1781099243771590400,7.21159033203125,-0.010208695195615292,0.039205990731716156,-0.010251305997371674
1781099243796665600,7.23666552734375,-0.027109382674098015,0.017181649804115295,-0.031688954681158066
1781099243821740500,7.261740478515625,-0.035289015620946884,-0.023359650745987892,-0.05293778330087662
1781099243846816500,7.28681640625,-0.04693874716758728,-0.017307350412011147,-0.05752747505903244
1781099243871891500,7.311891357421875,-0.047017309814691544,-0.019701000303030014,-0.029955236241221428
1781099243896967700,7.3369677734375,-0.0382070392370224,-0.012300875037908554,0.02045600675046444
1781099243922042600,7.362042724609375,-0.00746244378387928,-0.07712247967720032,0.04078790917992592
1781099243947117600,7.38711767578125,-0.000570981705095619,-0.08852799981832504,0.07365664094686508
1781099243972193500,7.412193603515625,-0.04658907279372215,-0.09822829812765121,-0.00019254654762335122
1781099243997268500,7.4372685546875,-0.05041097477078438,-0.0781366154551506,-0.06106388568878174
1781099244022343400,7.462343505859375,-0.0922527015209198,-0.03266287222504616,-0.0901448056101799
1781099244047419600,7.487419677734375,-0.07425478845834732,0.021447502076625824,-0.062483083456754684
1781099244072494600,7.51249462890625,-0.11222188174724579,0.007002515718340874,-0.021759623661637306
1781099244097570300,7.5375703125,-0.15200524032115936,-0.004168379586189985,-0.001654355670325458
1781099244122645500,7.5626455078125,-0.10268376767635345,0.009771137498319149,0.020254671573638916
1781099244147720400,7.587720458984375,-0.0881761983036995,0.0737900659441948,0.05781989172101021
1781099244172796400,7.61279638671875,-0.05913469195365906,-0.009867810644209385,0.04063371196389198
1781099244197871400,7.637871337890625,0.05902683362364769,0.11732129752635956,-0.008758338168263435
1781099244222947300,7.662947265625,-0.011721104383468628,-0.08009643107652664,-0.07890547066926956
1781099244248022500,7.6880224609375,0.10801355540752411,0.09892524778842926,-0.10400762408971786
1781099244273097500,7.713097412109375,-0.004487959202378988,0.0519859679043293,-0.0639137327671051
1781099244298173400,7.73817333984375,-0.08402193337678909,0.15137754380702972,0.006836866959929466
1781099244323248400,7.763248291015625,-0.08997969329357147,0.16439826786518097,0.09868130087852478
1781099244348324600,7.78832470703125,-0.1654110699892044,0.13257747888565063,0.16223017871379852
1781099244373399600,7.813399658203125,-0.1403091698884964,0.33632874488830566,0.18183530867099762
1781099244398474500,7.838474609375,-0.11356277763843536,0.4102194905281067,0.12241486459970474
1781099244423550500,7.863550537109375,-0.07278285920619965,0.16474448144435883,0.10890357941389084
1781099244448625700,7.888625732421875,0.020107930526137352,0.0862552598118782,0.17255206406116486
1781099244473701400,7.913701416015625,0.08514472097158432,0.24666011333465576,0.13324087858200073
1781099244498776300,7.9387763671875,0.07437782734632492,0.20144043862819672,0.12024997919797897
1781099244523851500,7.9638515625,0.0335150845348835,0.0178770013153553,0.052566803991794586
1781099244548927500,7.988927490234375,-0.012524314224720001,-0.09227214008569717,-0.015125423669815063
1781099244574002400,8.01400244140625,-0.052018724381923676,-0.07986074686050415,-0.018490327522158623
1781099244599077400,8.039077392578125,-0.11069615185260773,-0.006725280545651913,-0.026492327451705933
1781099244624153300,8.0641533203125,-0.09240423142910004,-0.03863288089632988,-0.04007737711071968
1781099244649228500,8.089228515625,0.003993942867964506,-0.0075692362152040005,-0.010006295517086983
1781099244674304500,8.114304443359375,0.09037330746650696,0.07825113087892532,0.006047506351023912
1781099244699379500,8.13937939453125,0.15497680008411407,0.07535414397716522,0.001958488719537854
1781099244724454400,8.164454345703126,0.29129230976104736,0.16341395676136017,-0.027044666931033134
1781099244749530600,8.189530517578126,0.2949584126472473,0.08387412875890732,-0.014312893152236938
1781099244774605600,8.21460546875,0.329169899225235,0.25897058844566345,-0.021319137886166573
1781099244799680500,8.239680419921875,0.20401331782341003,0.1545831859111786,0.017890317365527153
1781099244824756500,8.264756591796875,0.17284926772117615,0.3560055196285248,0.035233620554208755
1781099244849831400,8.28983154296875,-0.02203313075006008,0.18501059710979462,-0.020325511693954468
1781099244874907400,8.314907470703124,-0.1454133838415146,-0.08754076808691025,0.011178085580468178
1781099244899982300,8.339982421875,-0.10112768411636353,-0.08681665360927582,0.06777744740247726
1781099244925057500,8.3650576171875,-0.08486855030059814,0.00464668357744813,0.023690415546298027
1781099244950133500,8.390133544921875,-0.07753366976976395,0.0067239492200315,-0.04704074561595917
1781099244975208400,8.41520849609375,-0.02479030191898346,-0.006607568822801113,-0.06823870539665222
1781099245000284700,8.44028466796875,-0.018152106553316116,-0.040496826171875,-0.0166745837777853
1781099245025359600,8.465359619140624,-0.06747304648160934,-0.07517997175455093,0.023068035021424294
1781099245050434600,8.4904345703125,-0.007013434544205666,0.029881466180086136,0.015018364414572716
1781099245075510800,8.5155107421875,-0.01170565839856863,0.11172732710838318,-0.023210247978568077
1781099245100585700,8.540585693359375,-0.12049472332000732,0.011442803777754307,0.00013448962999973446
1781099245125660700,8.56566064453125,-0.06929465383291245,0.09135148674249649,-0.011533884331583977
1781099245150736600,8.590736572265625,-0.10386621206998825,-0.02485981024801731,-0.046792805194854736
1781099245175811600,8.6158115234375,-0.0577210858464241,-0.14553828537464142,-0.023212112486362457
1781099245200887800,8.6408876953125,0.032472189515829086,0.06671032309532166,-0.08785262703895569
1781099245225962800,8.665962646484376,-0.09068170189857483,-0.0805949792265892,-0.11658679693937302
1781099245251037700,8.69103759765625,0.032531578093767166,0.004572647623717785,-0.09171287715435028
1781099245276113400,8.716113525390625,-0.029652699828147888,-0.07051864266395569,-0.023507190868258476
1781099245301188600,8.741188720703125,-0.03742966428399086,0.0433831587433815,0.02299080230295658
1781099245326263600,8.766263671875,-0.028114724904298782,0.12812015414237976,0.029864421114325523
1781099245351339500,8.791339599609374,-0.14249269664287567,0.009179649874567986,-0.0009635316673666239
1781099245376414500,8.81641455078125,-0.08995039761066437,0.12621226906776428,-0.02347523160278797
1781099245401490700,8.84149072265625,0.010851582512259483,0.07320576906204224,0.057308562099933624
1781099245426565600,8.866565673828125,-0.002478603972122073,0.04565510153770447,0.13955417275428772
1781099245451640600,8.891640625,0.008803611621260643,0.11901959776878357,0.08951549977064133
1781099245476716500,8.916716552734375,0.05925986170768738,0.028254806995391846,-0.039691220968961716
1781099245501791700,8.941791748046874,0.08491915464401245,-0.1392071545124054,-0.15305213630199432
1781099245526866700,8.96686669921875,0.06590098887681961,-0.09897824376821518,-0.12333817780017853
1781099245551942700,8.991942626953126,0.038773760199546814,-0.007590008899569511,-0.07574376463890076
1781099245577017600,9.017017578125,0.047156594693660736,-0.043770648539066315,-0.05758952721953392
1781099245602093800,9.04209375,0.08287064731121063,-0.1825418472290039,-0.06339149177074432
1781099245627168800,9.067168701171875,0.11255903542041779,-0.1547136753797531,-0.0595615990459919
1781099245652243700,9.09224365234375,0.11287461966276169,0.012837501242756844,-0.04115862026810646
1781099245677319400,9.1173193359375,0.054119959473609924,0.013921141624450684,-0.04724154621362686
1781099245702394600,9.14239453125,0.009651029482483864,-0.06987042725086212,-0.037934865802526474
1781099245727469600,9.167469482421875,-0.015717443078756332,-0.05011935904622078,-0.014478807337582111
1781099245752545500,9.192545654296875,-0.04355653375387192,0.05326694995164871,-0.008580172434449196
1781099245777620500,9.217620361328125,-0.07183957099914551,0.07221321016550064,-0.0062669506296515465
1781099245802696700,9.24269677734375,-0.10462787747383118,0.06675213575363159,0.0226251520216465
1781099245827771600,9.267771728515624,-0.11860627681016922,0.04170643538236618,0.0989883616566658
1781099245852846600,9.2928466796875,-0.09158238023519516,0.049205098301172256,0.2237907499074936
1781099245877922600,9.317922607421876,-0.11378835141658783,-0.04974891245365143,0.21175619959831238
1781099245902997800,9.342997802734375,-0.18029867112636566,-0.06329162418842316,0.05614129826426506
1781099245928072700,9.36807275390625,-0.2070581167936325,-0.07731129974126816,-0.011485680937767029
1781099245953148700,9.393148681640625,-0.1982172131538391,0.010746387764811516,0.018433069810271263
1781099245978223900,9.418223876953125,-0.13522493839263916,0.0833825096487999,0.06856441497802734
1781099246003299800,9.4432998046875,-0.06280878931283951,0.06595718115568161,0.04687110334634781
1781099246028374800,9.468374755859376,-0.07054367661476135,0.007220628671348095,0.0234624482691288
1781099246053449700,9.49344970703125,-0.1099209114909172,0.003151318524032831,-0.006623015273362398
1781099246078525700,9.518525634765625,-0.03128841519355774,0.037949513643980026,-0.007637945935130119
1781099246103600600,9.5436005859375,0.13074229657649994,0.09872764348983765,-0.016259396448731422
1781099246128676600,9.568676513671875,0.143513485789299,-0.02684146724641323,-0.03833886608481407
1781099246153751600,9.59375146484375,0.10879518836736679,-0.01245107688009739,-0.05612532049417496
1781099246178826800,9.61882666015625,0.14350762963294983,0.1653846949338913,-0.045695848762989044
1781099246203902700,9.64390283203125,0.12595820426940918,0.15374748408794403,-0.008642223663628101
1781099246228977700,9.668977783203125,0.06647196412086487,0.03948535770177841,-0.02215084247291088
1781099246254052600,9.694052490234375,0.04175916314125061,0.025593243539333344,-0.06235099211335182
1781099246279128800,9.71912890625,0.023443806916475296,0.07661514729261398,-0.05980367958545685
1781099246304203800,9.744203857421875,-0.06597741693258286,0.028267590329051018,-0.031734492629766464
1781099246329279700,9.76927978515625,-0.14571619033813477,-0.003057841444388032,-0.06212036311626434
1781099246354354700,9.794354736328126,-0.12380849570035934,0.059846553951501846,-0.0563676692545414
1781099246379430000,9.819429931640625,-0.09626422077417374,0.09395339339971542,-0.033127859234809875
1781099246404505900,9.844505859375,-0.13783402740955353,0.01913987286388874,-0.0037622477393597364
1781099246429580800,9.869580810546875,-0.1352182775735855,0.03298431634902954,-0.04893531650304794
1781099246454656500,9.894656494140625,-0.07299058884382248,0.16103096306324005,-0.04826526716351509
1781099246479731700,9.919731689453124,-0.04074636474251747,0.14116378128528595,-0.04211203381419182
1781099246504806700,9.944806640625,-0.03915352746844292,0.10551124811172485,-0.0869910940527916
1781099246529882600,9.969882568359376,-0.06052539497613907,0.11661822348833084,-0.10712139308452606
1781099246554957600,9.99495751953125,-0.05237052962183952,0.1697368323802948,-0.1475607007741928
1781099246580032800,10.02003271484375,-0.04872439429163933,0.1720452606678009,-0.1732223778963089
1781099246605108700,10.045108642578125,-0.08256758004426956,0.1276780664920807,-0.15782105922698975
1781099246630183700,10.07018359375,-0.1111036166548729,0.15545031428337097,-0.14205008745193481
1781099246655259600,10.095259765625,-0.10092688351869583,0.2241920828819275,-0.1537187248468399
1781099246680334800,10.1203349609375,-0.12946026027202606,0.2421862632036209,-0.17153607308864594
1781099246705409800,10.145409912109375,-0.17429563403129578,0.2614116370677948,-0.1775636076927185
1781099246730485800,10.17048583984375,-0.15994413197040558,0.2904278337955475,-0.18230456113815308
1781099246755560700,10.195560791015625,-0.12712706625461578,0.2782262861728668,-0.24251410365104675
1781099246780636700,10.22063671875,-0.15318289399147034,0.2815443277359009,-0.30261579155921936
1781099246805712000,10.2457119140625,-0.15720613300800323,0.2790153920650482,-0.37286385893821716
1781099246830786800,10.270786865234374,-0.14439579844474792,0.33313775062561035,-0.4361909031867981
1781099246855862500,10.295862548828126,-0.17374329268932343,0.34855931997299194,-0.5163943767547607
1781099246880937700,10.320937744140625,-0.2337014377117157,0.36066630482673645,-0.7244037985801697
1781099246906013700,10.346013671875,-0.3375977575778961,0.40304094552993774,-0.9228625297546387
1781099246931088600,10.371088623046875,-0.39772552251815796,0.4875262677669525,-1.1168147325515747
1781099246956162800,10.396162841796874,-0.4631604552268982,0.42745572328567505,-1.3463687896728516
1781099246981238800,10.42123876953125,-0.4961482286453247,0.4204888939857483,-1.5632976293563843
1781099247006314000,10.44631396484375,-0.4884932339191437,0.22779054939746857,-1.7047295570373535
1781099247031390000,10.471389892578125,-0.4571313261985779,-0.031009048223495483,-1.819756031036377
1781099247056465000,10.49646484375,-0.4316651225090027,-0.39457181096076965,-1.7871187925338745
1781099247081539800,10.521539794921875,-0.5209294557571411,-0.2818676233291626,-1.688846230506897
1781099247106616000,10.546615966796875,-0.4555289149284363,-0.19180218875408173,-1.5458065271377563
1781099247131691000,10.57169091796875,-0.3450649678707123,-0.012426042929291725,-1.264086127281189
1781099247171812000,10.61181201171875,-0.2670373022556305,0.21331466734409332,-0.7312861680984497
1781099247211932000,10.651931884765625,-0.17134246230125427,0.1880982667207718,-0.26192161440849304
1781099247252053000,10.692052978515624,-0.11445307731628418,0.14620061218738556,0.07701995223760605
1781099247292173800,10.732173828125,-0.002561694709584117,0.14395077526569366,0.306418776512146
1781099247332294000,10.7722939453125,0.03392361104488373,0.0934830754995346,0.5427908301353455
1781099247372415000,10.8124150390625,-0.4436804950237274,-0.02479935623705387,0.32495197653770447
1781099247412535800,10.852535888671875,-0.43974143266677856,-0.22197102010250092,-0.04464523121714592
1781099247452656000,10.89265625,-0.10612829774618149,-0.17795029282569885,0.08733117580413818
1781099247492777000,10.93277685546875,-0.1893094778060913,-0.05272073671221733,0.21367287635803223
1781099247532897000,10.97289697265625,-0.17052513360977173,-0.08305014669895172,0.17741499841213226
1781099247573018000,11.01301806640625,-0.14528289437294006,-0.08723317086696625,0.11834555119276047
1781099247613139000,11.053138916015625,-0.146033376455307,-0.1654243767261505,0.19817247986793518
1781099247653259000,11.093259033203125,-0.08079231530427933,-0.05636260658502579,0.10286059975624084
1781099247693379800,11.1333798828125,-0.0290612131357193,-0.14718811213970184,0.027539482340216637
1781099247733501000,11.1735009765625,0.016050871461629868,-0.07798987627029419,0.11869922280311584
1781099247773620700,11.213620849609375,0.05835651606321335,-0.1905212104320526,0.3060203790664673
1781099247813741800,11.253741943359374,0.006717291194945574,-0.2991286516189575,0.3085538446903229
1781099247853863000,11.29386279296875,0.0025121597573161125,-0.21547982096672058,0.34675902128219604
1781099247893983000,11.33398291015625,-0.018198179081082344,-0.1160011738538742,0.16558869183063507
1781099247934104000,11.37410400390625,0.006776147056370974,-0.16371142864227295,-0.14441683888435364
1781099247974225700,11.4142255859375,-0.011388209648430347,0.024338895455002785,0.012176505289971828
1781099248014346000,11.454345947265624,-0.03128015995025635,0.32548782229423523,-0.030185865238308907
1781099248054466800,11.494466796875,-0.02580789476633072,0.07218445092439651,-0.18461191654205322
1781099248094588000,11.534587890625,-0.042924828827381134,0.0021670141723006964,-0.08157341927289963
1781099248134708000,11.5747080078125,-0.07747668027877808,-0.049743056297302246,0.028802353888750076
1781099248174828800,11.614828857421875,-0.15945278108119965,-0.08106156438589096,-0.01059272326529026
1781099248214950000,11.654949951171876,-0.11100295186042786,-0.13468298316001892,0.09653293341398239
1781099248255069700,11.695069580078124,-0.044921137392520905,0.012406602501869202,-0.04435920715332031
1781099248295190800,11.735190673828125,0.04710173234343529,0.12871617078781128,-0.2740328907966614
1781099248335312000,11.775311767578126,0.1447092443704605,0.34656408429145813,-0.40933266282081604
1781099248375431700,11.815431640625,0.13003842532634735,0.332269549369812,-0.47279685735702515
1781099248415552800,11.855552734375,-0.004110855516046286,0.1395999789237976,-0.18273891508579254
1781099248455673900,11.895673828125,-0.231435626745224,0.015393603593111038,0.42116719484329224
1781099248495794000,11.9357939453125,-0.16224536299705505,-0.25269269943237305,0.27048608660697937
1781099248535915000,11.9759150390625,-0.16500812768936157,-0.13434316217899323,0.015234879218041897
1781099248576035800,12.016035888671874,-0.279556542634964,-0.06715959310531616,0.16421957314014435
1781099248616156000,12.056156005859375,-0.1472025066614151,-0.10001421719789505,0.2636287212371826
1781099248656277000,12.096277099609376,0.020795293152332306,0.04800534248352051,0.030612504109740257
1781099248696397800,12.136397705078124,0.013380253687500954,0.14752927422523499,-0.11242561042308807
1781099248736518000,12.176517822265625,-0.01757127046585083,-0.051589157432317734,-0.03345276415348053
1781099248776638700,12.216638671875,-0.020384633913636208,-0.022730613127350807,0.052441369742155075
1781099248816759800,12.256759765625,-0.08831228315830231,0.018577147275209427,0.0441775806248188
1781099248856879900,12.2968798828125,-0.056410811841487885,0.025660356506705284,0.016221048310399055
1781099248897000700,12.337000732421876,-0.03898122161626816,-0.004913798533380032,-0.04571129381656647
1781099248937121800,12.377121826171875,0.06946589052677155,-0.02869263105094433,-0.10239028930664062
1781099248977242000,12.4172421875,0.06676145642995834,-0.029828468337655067,-0.038669098168611526
1781099249017362200,12.457362060546876,0.03849705681204796,-0.09417203813791275,-0.037947915494441986
1781099249057483300,12.497483154296875,-0.01625167392194271,-0.03225034847855568,-0.0868115946650505
1781099249097604000,12.53760400390625,-0.0408526249229908,0.02581268921494484,0.04424522444605827
1781099249137724200,12.57772412109375,-0.025840651243925095,0.019451195374131203,-0.03139014542102814
1781099249177845000,12.617844970703125,-0.011500328779220581,0.004992361646145582,-0.03479073569178581
1781099249217966000,12.657966064453126,-0.06618274748325348,-0.03500378876924515,-0.007570301648229361
1781099249258086000,12.6980859375,-0.09560961276292801,-0.08175797760486603,-0.04489690065383911
1781099249298207000,12.73820703125,-0.06801766902208328,-0.05766276270151138,0.03898601606488228
1781099249338328000,12.778328125,-0.10639994591474533,0.03647332265973091,0.06411933153867722
1781099249378448100,12.8184482421875,-0.18752647936344147,-0.09524795413017273,0.07407902181148529
1781099249418569000,12.85856884765625,-0.0804908499121666,0.018309231847524643,0.07108137011528015
1781099249458690000,12.89868994140625,-0.0986003428697586,-0.10922741889953613,0.030349649488925934
1781099249498811000,12.938810791015625,-0.04996702820062637,0.078995481133461,0.05078355222940445
1781099249538931200,12.97893115234375,-0.04817818105220795,-0.07410138845443726,0.09816838055849075
1781099249579052000,13.019052001953124,-0.044734448194503784,-0.11241336166858673,-0.04161588475108147
1781099249619173000,13.059173095703125,-0.024356205016374588,-0.1065240427851677,0.06526236236095428
1781099249659293200,13.099293212890625,-0.06141702085733414,0.1025889590382576,0.07164862006902695
1781099249699414000,13.1394140625,-0.06713349372148514,-0.07733739912509918,-0.03646746277809143
1781099249739535000,13.17953515625,-0.04704660549759865,0.06651724129915237,-0.03593349829316139
1781099249779655000,13.219655029296876,-0.025074193254113197,0.07214955985546112,0.0033310819417238235
1781099249819776000,13.25977587890625,-0.03286074474453926,-0.0440545417368412,0.0412859208881855
1781099249859897000,13.29989697265625,-0.03443946689367294,-0.03226712718605995,0.03247671574354172
1781099249900018000,13.340017822265626,-0.030850058421492577,-0.08909818530082703,0.0003102582704741508
1781099249940138000,13.380137939453125,-0.08528107404708862,-0.0590372197329998,0.10271492600440979
1781099249980259300,13.42025927734375,-0.010522415861487389,0.05987105518579483,0.0319688506424427
1781099250020380400,13.46038037109375,0.020113524049520493,0.06676438450813293,0.10884792357683182
1781099250060500500,13.50050048828125,0.011938950978219509,0.041796714067459106,0.10938641428947449
1781099250100621600,13.54062158203125,0.01896383799612522,-0.03448047861456871,-0.013814082369208336
1781099250140742700,13.58074267578125,-0.04592248424887657,-0.049792323261499405,0.10499272495508194
1781099250180863700,13.62086376953125,0.019654395058751106,-0.06688688695430756,0.04219965264201164
1781099250220983600,13.660983642578126,0.011776764877140522,-0.033061280846595764,0.12737739086151123
1781099250261104600,13.701104736328125,0.009186041541397572,-0.11439927667379379,0.21145232021808624
1781099250301225500,13.7412255859375,0.08077607303857803,-0.09165215492248535,0.21951238811016083
1781099250341346600,13.7813466796875,0.09447270631790161,-0.0772271454334259,0.1595126986503601
1781099250381466400,13.82146630859375,0.11985103785991669,-0.07644550502300262,-0.058863315731287
1781099250421587500,13.86158740234375,0.01534886285662651,-0.061109159141778946,-0.009344233199954033
1781099250461708500,13.90170849609375,-0.03409591689705849,0.06006493419408798,0.02581535093486309
1781099250501828400,13.941828369140625,-0.09356510639190674,0.19669441878795624,0.03032648004591465
1781099250541949400,13.981949462890626,-0.11759188026189804,0.09561759978532791,0.08584752678871155
1781099250582070500,14.022070556640625,-0.12085185199975967,-0.04003263637423515,-0.012900352478027344
1781099250622191400,14.06219140625,-0.021529793739318848,0.06077200546860695,0.044497694820165634
1781099250662311700,14.102311767578126,-0.01876622997224331,0.0846397876739502,0.0013587448047474027
1781099250702432500,14.1424326171875,-0.010230532847344875,0.032399486750364304,0.037400901317596436
1781099250742553600,14.1825537109375,0.04044462740421295,0.08115290850400925,-0.029226329177618027
1781099250782674400,14.22267431640625,0.06132088229060173,0.26509636640548706,-0.14771915972232819
1781099250822794500,14.26279443359375,0.05667899176478386,0.1983247995376587,-0.311424195766449
1781099250862915600,14.30291552734375,-0.062070559710264206,0.010559434071183205,0.03573056682944298
1781099250903036700,14.34303662109375,-0.006373210810124874,-0.0899738296866417,0.22488105297088623
1781099250943157500,14.383157470703125,-0.02875574864447117,0.06995857506990433,0.15595950186252594
1781099250983277600,14.423277587890626,0.018156899139285088,0.16845080256462097,-0.028967203572392464
1781099251023398400,14.4633984375,0.05964016169309616,0.03694630041718483,0.008679508231580257
1781099251063519500,14.50351953125,0.09905654191970825,-0.0943283662199974,-0.03494839742779732
1781099251103640600,14.543640625,0.08951497077941895,0.13203206658363342,-0.08979380130767822
1781099251143760400,14.583760498046875,0.008579107001423836,0.14232492446899414,0.06853777915239334
1781099251183881500,14.623881591796875,0.09670577198266983,0.12568043172359467,-0.046010103076696396
1781099251224002300,14.664002197265624,0.1198318600654602,-0.026195650920271873,0.005474127363413572
1781099251264123400,14.704123291015625,0.045211419463157654,-0.0540190264582634,0.012938701547682285
1781099251304243500,14.744243408203126,0.05981486290693283,0.050028812140226364,0.0015962987672537565
1781099251344364300,14.7843642578125,0.08810695260763168,0.19526110589504242,0.09131020307540894
1781099251384485400,14.8244853515625,0.13170263171195984,0.09816811233758926,-0.029621008783578873
1781099251424605400,14.86460546875,0.07768307626247406,0.05455645173788071,-0.025501098483800888
1781099251464726500,14.9047265625,0.09318294376134872,0.1523732990026474,-0.08263549208641052
1781099251504847600,14.94484765625,0.1011926606297493,0.03194275125861168,-0.09421811252832413
1781099251544968400,14.984968505859374,0.00017683389887679368,0.04679733142256737,0.05518123134970665
1781099251585089500,15.025089599609375,0.053457099944353104,0.17278829216957092,-0.16538256406784058
1781099251625209600,15.065209716796875,0.06510443240404129,-0.056645702570676804,0.0007827030494809151
1781099251665330400,15.105330322265624,0.028915803879499435,0.1310429722070694,-0.07735950499773026
1781099251705451500,15.145451416015625,0.11290711164474487,0.1175985336303711,0.03394491598010063
1781099251745572600,15.185572509765626,-0.0784764289855957,0.035774242132902145,-0.1178416833281517
1781099251785692400,15.2256923828125,0.12518374621868134,0.0833795815706253,-0.017607223242521286
1781099251825813500,15.2658134765625,0.028174646198749542,0.1615060716867447,0.11182932555675507
1781099251865934300,15.305934326171876,0.05229782685637474,0.06755480915307999,-0.0440572053194046
1781099251906055400,15.346055419921875,-0.008753277361392975,-0.04698029160499573,0.07584309577941895
1781099251946175500,15.386175537109375,0.023613184690475464,0.18763194978237152,0.05318226292729378
1781099251986296600,15.426296630859374,0.02750779129564762,0.09740005433559418,0.05993017926812172
1781099252026417700,15.466417724609375,0.039080023765563965,0.12487348914146423,-0.06742138415575027
1781099252066538500,15.50653857421875,0.01073759887367487,0.18445932865142822,0.028011394664645195
1781099252106659600,15.54665966796875,0.04104463756084442,0.10890118032693863,-0.07959522306919098
1781099252146779600,15.586779541015625,0.014867362566292286,0.19382646679878235,0.05676021799445152
1781099252186900700,15.626900634765626,-0.011889150366187096,0.10488460212945938,-0.052615273743867874
1781099252227021600,15.667021484375,0.050269294530153275,0.12843413650989532,0.10038332641124725
1781099252267142700,15.707142578125,0.06673935055732727,0.20150195062160492,0.03284343332052231
1781099252307262700,15.7472626953125,0.17072060704231262,0.11292548477649689,0.07453229278326035
1781099252347383800,15.7873837890625,0.036672793328762054,0.09410199522972107,-0.033718548715114594
1781099252387504600,15.827504638671876,0.12229395657777786,0.10265793651342392,0.08570824563503265
1781099252427625700,15.867625732421875,0.07670675963163376,0.1814294457435608,0.03922490030527115
1781099252467746800,15.907746826171875,0.15096208453178406,0.0463496558368206,-0.19043013453483582
1781099252507866600,15.94786669921875,0.16672000288963318,0.06934285163879395,-0.05399292707443237
1781099252547987700,15.98798779296875,0.1639721542596817,0.16657805442810059,-0.18607506155967712
1781099252588108500,16.028108642578125,0.12626206874847412,0.005285575985908508,-0.11921587586402893
1781099252628229600,16.068229736328124,0.07571473717689514,0.02280651219189167,-0.03669010475277901
1781099252668349700,16.108349609375,0.12535393238067627,0.06282956153154373,-0.11296702921390533
1781099252708470500,16.148470458984374,0.1141848936676979,0.07288326323032379,-0.10360974818468094
1781099252748591600,16.188591552734376,0.09783654659986496,0.06417765468358994,-0.005312207154929638
1781099252788712700,16.228712646484375,0.08357878029346466,0.07070932537317276,0.06895030289888382
1781099252828833500,16.26883349609375,0.052265867590904236,-0.02370266616344452,-0.0555463507771492
1781099252868953600,16.30895361328125,0.09263060241937637,-0.048043958842754364,-0.10007147490978241
1781099252909074400,16.349074462890623,0.08257290720939636,0.13817225396633148,0.03386076167225838
1781099252949195500,16.389195556640626,0.0838237926363945,0.16157105565071106,-0.0013693973887711763
1781099252989316400,16.42931640625,0.09856492280960083,0.15048111975193024,-0.15813371539115906
1781099253029436200,16.469436279296875,0.028298482298851013,0.13464835286140442,0.10071462392807007
1781099253069557200,16.50955712890625,0.12215040624141693,0.15542633831501007,-0.03777028247714043
1781099253109678300,16.54967822265625,0.0909205824136734,0.1673213541507721,-0.1374894231557846
1781099253149799200,16.589799072265624,0.1100628525018692,0.13293461501598358,-0.01062388252466917
1781099253189920300,16.629920166015626,0.1110365092754364,0.18413707613945007,-0.054072290658950806
1781099253230040300,16.670040283203125,0.14772261679172516,0.2305208295583725,-0.0046813045628368855
1781099253270161200,16.7101611328125,0.09632387012243271,-0.003466104157269001,-0.08456175774335861
1781099253310282200,16.7502822265625,0.1279691457748413,0.01101723127067089,0.005064799915999174
1781099253350403300,16.7904033203125,0.06795161962509155,0.0926138237118721,-0.08769256621599197
1781099253390524200,16.830524169921876,0.13331064581871033,0.06354089081287384,-0.10257910192012787
1781099253430644200,16.870644287109375,0.15052080154418945,0.28311052918434143,-0.015052719041705132
1781099253470765000,16.91076513671875,0.16025517880916595,0.14457742869853973,-0.10309229791164398
1781099253510886100,16.95088623046875,0.08808431774377823,-0.04680425673723221,-0.20903897285461426
1781099253551007200,16.99100732421875,0.08900657296180725,0.15019455552101135,-0.022959643974900246
1781099253591128000,17.031128173828126,0.013548033311963081,0.02828703075647354,-0.05853095278143883
1781099253631248100,17.071248046875,0.0834466889500618,-0.08549093455076218,-0.023783093318343163
1781099253671369200,17.111369140625,0.17424637079238892,-0.009090966545045376,-0.10143447667360306
1781099253711490000,17.151489990234374,0.13157932460308075,-0.14177444577217102,0.03945712745189667
1781099253751611100,17.191611083984377,0.17262130975723267,-0.26597708463668823,0.02491893246769905
1781099253791732200,17.231732177734376,0.15176209807395935,-0.23821203410625458,0.06404636055231094
1781099253831852300,17.271852294921874,0.19384802877902985,-0.037462152540683746,0.002695119008421898
1781099253871973400,17.311973388671873,0.19777965545654297,0.007084807381033897,-0.062435414642095566
1781099253912094200,17.35209423828125,0.22007085382938385,-0.03308657929301262,-0.2295447736978531
1781099253952215000,17.392215087890627,0.1734657883644104,0.07682580500841141,-0.18314185738563538
1781099253992336000,17.4323359375,0.030909979715943336,-0.029287314042448997,-0.10301399976015091
1781099254032456000,17.4724560546875,-0.027638019993901253,0.09973857551813126,-0.1560457944869995
1781099254072576800,17.51257666015625,-0.054074954241514206,0.10389523953199387,0.12560425698757172
1781099254112697900,17.55269775390625,0.02732589654624462,0.1933593451976776,-0.08063625544309616
1781099254152819000,17.59281884765625,0.05867529660463333,0.0352671779692173,-0.0986674576997757
1781099254192939800,17.632939697265623,0.10150744765996933,0.10599620640277863,0.005438175052404404
1781099254233059800,17.673059814453126,0.09230010211467743,0.1315803974866867,0.0012985573848709464
1781099254273181000,17.713180908203125,0.12321700900793076,0.0019595539197325706,-0.16572505235671997
1781099254313301800,17.7533017578125,0.17216376960277557,-0.08405681699514389,0.06938200443983078
1781099254353422800,17.7934228515625,0.16050179302692413,0.23106996715068817,-0.04487799108028412
1781099254393544000,17.8335439453125,0.031065240502357483,0.011640943586826324,-0.12106330692768097
1781099254433664800,17.873664794921876,0.1449558585882187,0.0975116416811943,0.035121768712997437
1781099254473784800,17.913784912109374,0.09425566345453262,0.4787370264530182,-0.4654020369052887
1781099254513905700,17.95390576171875,0.07515493780374527,0.01555419247597456,-0.36814552545547485
1781099254554026800,17.99402685546875,0.07887057960033417,0.0548214353621006,0.23292113840579987
1781099254594147800,18.03414794921875,0.06220212206244469,0.18880480527877808,0.1600695550441742
1781099254634268700,18.0742685546875,-0.019629627466201782,-0.16603636741638184,-0.07726921886205673
1781099254674389000,18.114388916015624,0.1351889818906784,0.08119764924049377,0.03789731487631798
1781099254714510000,18.154510009765627,0.06304820626974106,0.1668611615896225,0.1361578404903412
1781099254754631000,18.194630859375,0.2881276607513428,0.11476360261440277,-0.19049698114395142
1781099254794752000,18.234751953125,0.16502997279167175,0.05307839810848236,-0.20236322283744812
1781099254834873000,18.274873046875,0.0709679126739502,0.08455856144428253,-0.006028064992278814
1781099254874994000,18.314993896484374,0.13105416297912598,0.10589021444320679,-0.053170811384916306
1781099254915114000,18.355114013671876,0.0370245985686779,0.08357319235801697,-0.1196153461933136
1781099254955235000,18.395235107421875,0.11007323861122131,0.053408630192279816,0.055627577006816864
1781099254995356200,18.435356201171874,0.1607486754655838,0.2612651586532593,-0.11076859384775162
1781099255035477200,18.475477294921873,0.13673201203346252,-0.015151788480579853,0.00041545313433744013
1781099255075598000,18.51559814453125,0.10436608642339706,0.1429254561662674,-0.025017201900482178
1781099255115719200,18.55571923828125,0.07567664980888367,0.06260186433792114,0.1477990448474884
1781099255155839000,18.5958388671875,0.12579014897346497,0.14180107414722443,-0.14697693288326263
1781099255195960000,18.6359599609375,0.11402110755443573,-0.08436521142721176,-0.22896873950958252
1781099255236081200,18.6760810546875,0.19457001984119415,0.22508877515792847,0.05307547003030777
1781099255276202200,18.7162021484375,0.12423273175954819,0.1576514095067978,-0.11341524124145508
1781099255316323000,18.756322998046876,0.11531966924667358,0.029939789324998856,-0.10116789489984512
1781099255356444200,18.796444091796875,0.10826495289802551,-0.004011785611510277,-0.12432834506034851
1781099255396564000,18.83656396484375,0.12174054980278015,0.1392979770898819,-0.011241735890507698
1781099255436685000,18.87668505859375,0.14640195667743683,0.11475347727537155,-0.0245444905012846
1781099255476806100,18.91680615234375,0.12598110735416412,-0.01296613272279501,-0.26444098353385925
1781099255516927000,18.956927001953126,0.08378677815198898,-0.004282895475625992,-0.0997319221496582
1781099255557048000,18.997048095703125,0.13057851791381836,0.14801663160324097,0.03305036202073097
1781099255597169200,19.037169189453124,0.03694257140159607,0.08037792891263962,-0.24069437384605408
1781099255637289000,19.0772890625,0.05956532433629036,-0.0638604685664177,-0.012285960838198662
1781099255677410000,19.11741015625,0.1102687194943428,0.19654607772827148,0.017165403813123703
1781099255717531000,19.15753076171875,0.10185632109642029,0.02503211610019207,-0.0938338190317154
1781099255757652000,19.19765185546875,0.09167639166116714,-0.018610969185829163,-0.17942248284816742
1781099255797773000,19.23777294921875,0.14691221714019775,0.07079747319221497,0.03773273155093193
1781099255837894100,19.27789404296875,0.13976988196372986,0.21475358307361603,-0.16117051243782043
1781099255878014200,19.31801416015625,0.10134206712245941,-0.11903344839811325,-0.1209663674235344
1781099255918135000,19.358135009765626,0.16912643611431122,0.19612370431423187,-0.02827797643840313
1781099255958256000,19.398256103515624,0.04103638231754303,-0.0054602790623903275,-0.16603504121303558
1781099255998377000,19.438376953125,0.16725130379199982,0.1291513293981552,0.08428558707237244
1781099256038498000,19.478498046875,0.10043419897556305,0.09418189525604248,-0.11745845526456833
1781099256078619000,19.518618896484377,0.07349605858325958,-0.03783872351050377,-0.02605956420302391
1781099256118740000,19.558739990234375,0.15440528094768524,0.15569213032722473,-0.032175514847040176
1781099256158860000,19.598860107421874,0.06914284825325012,0.11979138106107712,-0.08248502016067505
1781099256198981000,19.638981201171877,0.09870713204145432,0.18364305794239044,-0.1489705741405487
1781099256239102200,19.679102294921876,0.08018910884857178,-0.05419772490859032,0.028414065018296242
1781099256279223000,19.71922314453125,0.16404779255390167,0.23748871684074402,-0.24909238517284393
1781099256319344000,19.75934423828125,0.11236222833395004,-0.03616759181022644,0.03424079343676567
1781099256359465200,19.79946533203125,0.18845166265964508,0.10981171578168869,0.03340216353535652
1781099256399585000,19.8395849609375,0.1920756995677948,-0.059057194739580154,-0.31669726967811584
1781099256439706000,19.8797060546875,0.17511989176273346,0.041244909167289734,-0.05921964719891548
1781099256479827200,19.9198271484375,0.11601635068655014,0.09265057742595673,0.0745333582162857
1781099256519948000,19.959947998046875,0.15914970636367798,0.16281715035438538,-0.20325857400894165
1781099256560069000,20.000069091796874,-0.02689153514802456,-0.1623889058828354,-0.11225543171167374
1781099256600190200,20.040190185546876,0.181378573179245,0.11671223491430283,-0.07521911710500717
1781099256640311000,20.08031103515625,0.04236689954996109,0.20349586009979248,-0.231438547372818
1781099256680431000,20.12043115234375,0.15159271657466888,-0.04211709275841713,-0.09949250519275665
1781099256720552000,20.160552001953125,0.10056468844413757,0.19258862733840942,0.02600283920764923
1781099256760673000,20.200673095703124,0.17733962833881378,-0.003537743119522929,-0.11493510752916336
1781099256800794000,20.240794189453126,0.1277153491973877,-0.0471360869705677,-0.1865573674440384
1781099256840915200,20.280915283203125,0.13492345809936523,0.09220556169748306,0.1501690000295639
1781099256881036000,20.3210361328125,0.1421203911304474,0.22088204324245453,-0.10799464583396912
1781099256921157000,20.3611572265625,0.06626664102077484,-0.08486349135637283,-0.13228081166744232
1781099256961277200,20.401277099609374,0.04813237488269806,0.1540960967540741,0.02317109890282154
1781099257001398300,20.441398193359376,0.07582712173461914,0.11566614359617233,0.1302751749753952
1781099257041519400,20.481519287109375,0.14302293956279755,0.01859259232878685,-0.19494791328907013
1781099257081640200,20.52164013671875,0.13070768117904663,-0.07281002402305603,-0.11277288943529129
1781099257121761300,20.56176123046875,0.258784681558609,0.1625460386276245,-0.07264304161071777
1781099257161882400,20.60188232421875,0.2407074123620987,0.0966024398803711,-0.34275415539741516
1781099257202003200,20.642003173828126,0.15595071017742157,0.1031665951013565,0.001856489572674036
1781099257242123300,20.682123291015625,0.12059912085533142,0.013789582066237926,-0.10585692524909973
1781099257282244400,20.722244384765624,0.13688142597675323,-0.10997869819402695,-0.14215287566184998
1781099257322365200,20.762365234375,0.1853189915418625,0.0213023591786623,-0.054124221205711365
1781099257362486300,20.802486328125,0.17847919464111328,-0.055482167750597,0.061172276735305786
1781099257402607400,20.842607421875,0.1674633026123047,-0.09331263601779938,-0.08499451726675034
1781099257442728200,20.882728271484375,0.1765713095664978,-0.15868231654167175,-0.1608879566192627
1781099257482849300,20.922849365234374,0.15940217673778534,0.2055283933877945,-0.08763078600168228
1781099257522969300,20.96296923828125,0.07072529941797256,0.18773899972438812,-0.14377474784851074
1781099257563090400,21.00309033203125,0.05186186730861664,0.1074305847287178,-0.17571642994880676
1781099257603211500,21.04321142578125,0.052569467574357986,0.009816944599151611,-0.12428812682628632
1781099257643332400,21.083332275390624,0.11446532607078552,0.10925138741731644,-0.08547335863113403
1781099257683453400,21.123453369140623,0.0891818106174469,-0.007010771427303553,-0.015614645555615425
1781099257723574300,21.16357421875,0.1576964259147644,-0.0303800106048584,-0.24284833669662476
1781099257763695400,21.2036953125,0.12981605529785156,-0.023877635598182678,-0.06125856190919876
1781099257803815400,21.2438154296875,0.19090017676353455,0.18237219750881195,-0.08133107423782349
1781099257843936500,21.2839365234375,0.06970717757940292,-0.03508048877120018,-0.208181694149971
1781099257884057300,21.324057373046877,0.04664073884487152,-0.07423614710569382,0.03927789628505707
1781099257924178400,21.364178466796876,0.11061199754476547,0.11916953325271606,-0.08729655295610428
1781099257964299300,21.40429931640625,0.06423597782850266,0.08346879482269287,-0.24626196920871735
1781099258004420400,21.44442041015625,0.09316962212324142,0.08463259786367416,-0.02942153811454773
1781099258044541200,21.484541259765624,0.15082679688930511,0.013261476531624794,-0.3018152415752411
1781099258084662300,21.524662353515627,0.13384142518043518,0.09990023076534271,-0.25798413157463074
1781099258124782300,21.5647822265625,0.08143360912799835,0.07472936809062958,0.0946921557188034
1781099258164903200,21.604903076171876,0.1131473258137703,-0.0877666026353836,-0.22611701488494873
1781099258205024300,21.645024169921875,0.1411760300397873,-0.18117457628250122,-0.1144070029258728
1781099258245145300,21.685145263671874,0.153451606631279,-0.12401515245437622,0.005191565956920385
1781099258285266200,21.72526611328125,0.14386023581027985,-0.07408647984266281,-0.34306228160858154
1781099258325387300,21.76538720703125,0.12946105003356934,-0.16537325084209442,-0.15100336074829102
1781099258365508400,21.80550830078125,0.15264759957790375,-0.0037848844658583403,-0.20864881575107574
1781099258405629200,21.845629150390625,0.10846948623657227,-0.14378300309181213,-0.30177822709083557
1781099258445749200,21.885749267578124,0.10551417618989944,-0.028927788138389587,-0.025555161759257317
1781099258485870000,21.9258701171875,0.15967755019664764,-0.030534472316503525,-0.06302770227193832
1781099258525991200,21.9659912109375,0.04476534202694893,-0.34005823731422424,-0.2780803442001343
1781099258566112300,22.0061123046875,0.04844582825899124,-0.11142825335264206,-0.0033867419697344303
1781099258606233000,22.046233154296875,0.1270114779472351,0.12794837355613708,-0.0020535634830594063
1781099258646354200,22.086354248046874,0.027965854853391647,-0.06284607201814651,-0.23185427486896515
1781099258686475300,22.126475341796876,0.05987584963440895,-0.3309462368488312,-0.08350261300802231
1781099258726596000,22.16659619140625,0.11402377486228943,0.10946337878704071,-0.061470549553632736
1781099258766716200,22.206716064453126,0.07142118364572525,-0.03146391734480858,0.0024799355305731297
1781099258806837200,22.246837158203125,0.0655856654047966,-0.06873485445976257,0.02913072146475315
1781099258846958000,22.2869580078125,0.09570042788982391,0.01738671399652958,-0.14193131029605865
1781099258887079200,22.3270791015625,0.0033129723742604256,-0.14721688628196716,-0.0348365418612957
1781099258927200300,22.3672001953125,0.05694317817687988,0.06585118174552917,0.09658273309469223
1781099258967321600,22.407321533203124,-0.002552107209339738,0.09869168698787689,-0.025606293231248856
1781099259007442700,22.447442626953126,0.07079427689313889,-0.048466600477695465,-0.10653655976057053
1781099259047563800,22.487563720703125,0.05188556760549545,-0.04102706164121628,-0.10747293382883072
1781099259087683600,22.52768359375,0.09503623098134995,0.13909797370433807,0.0875740572810173
1781099259127804700,22.5678046875,0.12452222406864166,0.014059360139071941,-0.1286860704421997
1781099259167925500,22.607925537109374,0.1012166291475296,-0.12117942422628403,-0.18980269134044647
1781099259208046600,22.648046630859376,0.05464034155011177,-0.021951638162136078,0.11145754903554916
1781099259248167700,22.688167724609375,0.13080568611621857,0.00911600049585104,-0.06598061323165894
1781099259288288500,22.72828857421875,0.08167728781700134,-0.05841910094022751,-0.22584804892539978
1781099259328409600,22.76840966796875,0.054964181035757065,-0.026396986097097397,0.11529117077589035
1781099259368530700,22.80853076171875,0.09694971889257431,0.04090189188718796,-0.013229252770543098
1781099259408650800,22.848650634765626,0.06592841446399689,-0.011414840817451477,-0.14985661208629608
1781099259448771800,22.888771728515625,0.08782865852117538,-0.08082747459411621,0.1004461795091629
1781099259488892700,22.928892578125,0.07581247389316559,-0.034755315631628036,-0.09024067968130112
1781099259529013800,22.969013671875,0.03176591917872429,0.043537091463804245,-0.04382497817277908
1781099259569134600,23.009134521484373,0.06067559868097305,0.03514121100306511,0.08402007073163986
1781099259609255700,23.049255615234376,0.0024804682470858097,0.04723861813545227,-0.13006265461444855
1781099259649376500,23.08937646484375,0.06081328168511391,0.028989041224122047,-0.06566982716321945
1781099259689497600,23.12949755859375,0.08171989768743515,0.17365221679210663,-0.1318855881690979
1781099259729618700,23.16961865234375,0.04553712531924248,0.259309858083725,-0.1536838412284851
1781099259769738800,23.20973876953125,0.09744692593812943,0.12459998577833176,-0.05235481634736061
1781099259809859800,23.24985986328125,0.015245798043906689,-0.19080457091331482,-0.06012938171625137
1781099259849980700,23.289980712890625,0.0030269487760961056,-0.14765070378780365,-0.07857204228639603
1781099259890101800,23.330101806640624,0.00558145297691226,0.036074914038181305,0.015028484165668488
1781099259930222800,23.370222900390626,0.10261745750904083,-0.08903799951076508,-0.1844816952943802
1781099259970343000,23.410343017578125,0.08687524497509003,-0.32120439410209656,-0.18730944395065308
1781099260010464000,23.450464111328124,0.14964115619659424,-0.12757261097431183,-0.23953376710414886
1781099260050584800,23.490584716796874,0.0347723625600338,-0.11765871942043304,-0.2945120632648468
1781099260090705000,23.530704833984377,0.003192331176251173,-0.21920904517173767,-0.18833822011947632
1781099260130825700,23.57082568359375,-0.02490348555147648,-0.18666309118270874,-0.14199335873126984
1781099260170946800,23.61094677734375,0.044969070702791214,-0.25769174098968506,-0.20527060329914093
1781099260211068000,23.65106787109375,0.028078239411115646,-0.3861311972141266,-0.27038222551345825
1781099260251189000,23.69118896484375,0.03753991797566414,-0.46746039390563965,-0.18824633955955505
1781099260291309800,23.731309814453127,-0.06165936961770058,-0.30421608686447144,-0.3432084918022156
1781099260331431000,23.771430908203126,-0.07279804348945618,-0.3451438248157501,-0.10471788793802261
1781099260371552000,23.811552001953125,-0.09619950503110886,-0.15912334620952606,-0.13952140510082245
1781099260411672800,23.8516728515625,-0.15984664857387543,-0.4277297556400299,-0.3067375719547272
1781099260451793000,23.89179296875,-0.10689236223697662,-0.3360256850719452,-0.09237227588891983
1781099260491913700,23.931913818359376,-0.18777069449424744,-0.05181046575307846,-0.04754594713449478
1781099260532034800,23.972034912109375,-0.19869498908519745,-0.05643691122531891,0.010863833129405975
1781099260572156000,24.012156005859374,-0.22511939704418182,-0.262741357088089,-0.025435585528612137
1781099260612276700,24.05227685546875,-0.19166983664035797,-0.2530066967010498,0.0652807354927063
1781099260652397800,24.092397705078124,-0.20950688421726227,-0.03783872351050377,0.24631310999393463
1781099260692519000,24.132518798828126,-0.16577325761318207,-0.06404289603233337,-0.015184279531240463
1781099260732639700,24.1726396484375,-0.4170435667037964,-0.34114187955856323,-0.2429758906364441
1781099260772760800,24.2127607421875,-0.1785804033279419,0.1736879050731659,0.123694509267807
1781099260812882000,24.2528818359375,-0.16082963347434998,0.7590562701225281,-0.22157101333141327
1781099260853002800,24.293002685546874,-0.33743423223495483,-0.11630317568778992,-0.42946746945381165
1781099260893122800,24.333122802734376,-0.13986575603485107,-0.29339325428009033,0.43306249380111694
1781099260933244000,24.373243896484375,-0.17318616807460785,0.3210877478122711,0.43888282775878906
1781099260973365200,24.413365234375,-0.03869333490729332,0.0014362427173182368,-0.031245270743966103
1781099261013486000,24.453486083984377,-0.18859973549842834,-0.33173584938049316,-0.014995461329817772
1781099261053607200,24.493607177734376,-0.013646570034325123,0.19210366904735565,0.4435558617115021
1781099261093728300,24.533728271484375,-0.14562617242336273,0.7215773463249207,0.08673808723688126
1781099261133849000,24.57384912109375,-0.04186356067657471,-0.1832750141620636,-0.08825715631246567
1781099261173970200,24.61397021484375,-0.19046369194984436,0.28869226574897766,0.014255634509027004
1781099261214091300,24.65409130859375,-0.08073612302541733,0.4081323742866516,0.37483325600624084
1781099261254212000,24.694212158203126,-0.15645724534988403,0.5122369527816772,0.061642058193683624
1781099261294332200,24.734332275390624,-0.07620981335639954,0.23780643939971924,0.37551581859588623
1781099261334453000,24.774452880859375,0.03783180192112923,0.574348509311676,0.32449445128440857
1781099261374574000,24.814573974609374,-0.007476025726646185,0.41713809967041016,0.44603314995765686
1781099261414695200,24.854695068359376,0.12806236743927002,0.36026549339294434,0.28893938660621643
1781099261454816000,24.89481591796875,0.01543781254440546,0.40172079205513,0.29149308800697327
1781099261494937000,24.93493701171875,0.17879557609558105,0.419464111328125,0.45543089509010315
1781099261535058200,24.97505810546875,0.11560249328613281,0.4654209613800049,0.24303501844406128
1781099261575179000,25.015178955078124,0.06852686405181885,0.17311106622219086,0.2160995453596115
1781099261615300000,25.055300048828126,0.15815101563930511,0.41110286116600037,0.12015863507986069
1781099261655421200,25.095421142578125,0.16456177830696106,0.5532565116882324,0.2180849313735962
1781099261695542000,25.1355419921875,0.2193738967180252,0.37191149592399597,-0.12732918560504913
1781099261735663000,25.1756630859375,0.14989495277404785,0.2864285707473755,-0.028303809463977814
1781099261775784200,25.2157841796875,0.23265215754508972,0.32519620656967163,0.04030214995145798
1781099261815905000,25.255905029296876,0.20763015747070312,0.3053756356239319,0.03801635652780533
1781099261856025300,25.296025390625,0.2614465057849884,0.20479601621627808,0.06100263446569443
1781099261896146200,25.336146240234374,0.2003738433122635,0.1357405185699463,-0.2419433891773224
1781099261936267300,25.376267333984377,0.20024973154067993,-0.02256602980196476,-0.09244338423013687
1781099261976388400,25.416388427734375,0.2940278947353363,0.3008005917072296,-0.058819908648729324
1781099262016509200,25.45650927734375,0.27744919061660767,0.1849868893623352,-0.17280027270317078
1781099262056630300,25.49663037109375,0.28825148940086365,0.12956571578979492,-0.2253391146659851
1781099262096751400,25.53675146484375,0.3074142634868622,0.01546391099691391,0.046549391001462936
1781099262136872200,25.5768720703125,0.338547945022583,0.1294085830450058,0.016271114349365234
1781099262176993300,25.6169931640625,0.3574926257133484,-0.06701818108558655,-0.006764961872249842
1781099262217114400,25.6571142578125,0.22334787249565125,-0.04969485104084015,0.08674980700016022
1781099262257235200,25.697235107421875,0.25265249609947205,-0.1677067130804062,-0.18068109452724457
1781099262297356300,25.737356201171874,0.12583968043327332,0.05818634107708931,-0.23582370579242706
1781099262337477400,25.777477294921876,0.16385523974895477,0.08805342763662338,-0.09182925522327423
1781099262377598200,25.81759814453125,0.30235639214515686,0.5020990967750549,-0.24251943826675415
1781099262417719300,25.85771923828125,0.1082199439406395,0.12328465282917023,-0.3861386477947235
1781099262457839600,25.897839599609377,0.16919195652008057,0.0667010024189949,-0.04760294035077095
1781099262497960400,25.93796044921875,0.35193219780921936,0.12775370478630066,-0.00603419030085206
1781099262538081300,25.978081298828126,0.14768080413341522,-0.002208026824519038,-0.27329784631729126
1781099262578202400,26.018202392578125,0.09151074290275574,-0.3616522252559662,-0.3909347355365753
1781099262618323200,26.0583232421875,0.1508779227733612,-0.07032902538776398,-0.08371832966804504
1781099262658444300,26.0984443359375,0.35667291283607483,0.4936470091342926,0.17770181596279144
1781099262698565400,26.1385654296875,0.44882041215896606,-0.10764523595571518,-0.3435363173484802
1781099262738686200,26.178686279296876,-0.5785573720932007,-0.917525053024292,-0.3231476843357086
1781099262778807300,26.218807373046875,0.19871336221694946,-0.5214522480964661,-0.023688817396759987
1781099262818928400,26.258928466796874,0.025735190138220787,1.050527811050415,-1.3229676485061646
1781099262859049200,26.29904931640625,0.34309130907058716,-0.49504461884498596,-0.44662168622016907
1781099262899170300,26.33917041015625,-0.11758921295404434,0.49104243516921997,0.43726760149002075
1781099262939291400,26.37929150390625,-0.03311188146471977,-0.30532583594322205,0.08541849255561829
1781099262979412700,26.419412841796873,-0.11427943408489227,-0.5437061786651611,0.06232888624072075
1781099263019533600,26.459533447265624,0.14831890165805817,-0.7866439819335938,-0.1202840656042099
1781099263059654700,26.499654541015627,0.014151771552860737,-0.06575051695108414,-0.030186930671334267
1781099263099775700,26.539775634765626,-0.22881214320659637,0.27647286653518677,-0.2626505196094513
1781099263139896600,26.579896484375,-0.04150563105940819,0.09219863265752792,-0.13740073144435883
1781099263180016600,26.6200166015625,0.01841043308377266,0.32410696148872375,-0.11699479818344116
1781099263220137500,26.660137451171874,-0.03207218274474144,0.233995720744133,-0.34048008918762207
1781099263260258600,26.700258544921876,-0.05873415246605873,-0.005000617355108261,0.08994533866643906
1781099263300379600,26.740379638671875,0.13944897055625916,0.1306416392326355,0.23141537606716156
1781099263340500500,26.78050048828125,0.023072030395269394,-0.21886283159255981,0.05826543644070625
1781099263380621600,26.82062158203125,0.11961774528026581,-0.147491455078125,0.05252765491604805
1781099263420742700,26.86074267578125,0.06324394792318344,-0.03453214466571808,0.26680001616477966
1781099263460863500,26.900863525390626,0.23531584441661835,0.18318073451519012,0.10844631493091583
1781099263500984600,26.940984619140625,0.07637146860361099,-0.006837133318185806,-0.15002518892288208
1781099263541105700,26.981105712890624,0.08573567867279053,-0.06636650860309601,-0.10566943883895874
1781099263581226800,27.021226806640627,0.08453992009162903,0.29463404417037964,-0.017668476328253746
1781099263621347600,27.06134765625,0.026578081771731377,0.31134748458862305,-0.13157133758068085
1781099263661468700,27.10146875,0.03129560500383377,-0.08117128163576126,-0.27972087264060974
1781099263701589800,27.14158984375,-0.0032754219137132168,0.04930336773395538,-0.10859838128089905
1781099263741710600,27.181710693359374,-0.00005273058923194185,0.10133327543735504,-0.07396690547466278
1781099263781831700,27.221831787109377,-0.025542911142110825,0.13199585676193237,-0.051893558353185654
1781099263821952800,27.261952880859376,0.05089300870895386,0.01438053697347641,-0.0451272651553154
1781099263862073600,27.302073486328126,-0.0623970665037632,-0.06149744987487793,-0.10114765912294388
1781099263902193700,27.342193603515625,0.007727428339421749,-0.1543685346841812,-0.002758235903456807
1781099263942314800,27.382314697265624,-0.018852783367037773,0.08593727648258209,0.0215324554592371
1781099263982435300,27.422435302734375,-0.15245266258716583,-0.19587309658527374,-0.1650850921869278
1781099264022556400,27.462556396484374,-0.01979367807507515,-0.19494445621967316,-0.16832669079303741
1781099264062677200,27.50267724609375,0.050768107175827026,-0.1347024142742157,-0.22888724505901337
1781099264102798300,27.54279833984375,0.09325990825891495,-0.1334531307220459,-0.2627701163291931
1781099264142919400,27.58291943359375,0.13677436113357544,-0.24874457716941833,-0.29467716813087463
1781099264183040300,27.623040283203125,0.13865961134433746,-0.26579520106315613,-0.3879093825817108
1781099264223161300,27.663161376953123,0.08269088715314865,-0.35654425621032715,-0.20156800746917725
1781099264263282200,27.7032822265625,0.1551339328289032,-0.15399329364299774,-0.24814055860042572
1781099264303403300,27.7434033203125,-0.017551563680171967,-0.44529810547828674,-0.278323769569397
1781099264343524000,27.783524169921876,0.05038727447390556,-0.3466269373893738,-0.17524239420890808
1781099264383645200,27.823645263671875,-0.052257344126701355,-0.33379048109054565,-0.136601522564888
1781099264423766000,27.86376611328125,-0.07917124778032303,-0.49856212735176086,-0.3645497262477875
1781099264463887000,27.90388720703125,-0.1860220730304718,-0.3024293780326843,-0.10903540998697281
1781099264504008200,27.94400830078125,-0.08841987699270248,-0.12476616352796555,-0.020718328654766083
1781099264544129000,27.98412890625,-0.2110898643732071,-0.3838028013706207,-0.20812150835990906
1781099264584250000,28.02425,-0.023922376334667206,-0.5071670413017273,-0.027962392196059227
1781099264624371200,28.06437109375,-0.1508699357509613,0.023484554141759872,-0.06100103631615639
1781099264664492300,28.1044921875,-0.09170408546924591,-0.4145793318748474,-0.006304501090198755
1781099264704612400,28.1446123046875,-0.12091869860887527,-0.19907209277153015,-0.20930208265781403
1781099264744733400,28.1847333984375,-0.163670152425766,-0.2225947231054306,-0.016082296147942543
1781099264784854300,28.224854248046874,-0.14650501310825348,0.10517195612192154,-0.03855697810649872
1781099264824975400,28.264975341796877,-0.17801927030086517,-0.09659445285797119,-0.05506857857108116
1781099264865096400,28.305096435546876,-0.19098860025405884,-0.31351104378700256,-0.09265563637018204
1781099264905217300,28.34521728515625,-0.0819137766957283,-0.06942488253116608,0.09633239358663559
1781099264945338400,28.38533837890625,-0.15946954488754272,0.00923504400998354,-0.03250068426132202
1781099264985459200,28.425459228515624,-0.07650649547576904,-0.19732213020324707,-0.037205424159765244
1781099265025580300,28.465580322265627,-0.1230713278055191,-0.24935683608055115,0.07474907487630844
1781099265065701000,28.505701171875,-0.0486234612762928,-0.19754929840564728,0.05182990804314613
1781099265105822200,28.545822265625,-0.20037144422531128,-0.21707585453987122,0.13834775984287262
1781099265145943000,28.585943115234375,-0.11375266313552856,-0.13344061374664307,-0.10057827085256577
1781099265186064100,28.626064208984374,-0.4463418126106262,-0.39283809065818787,-0.0256278645247221
1781099265226185000,28.66618505859375,-0.060085441917181015,0.08919432759284973,0.06793724000453949
1781099265266306000,28.70630615234375,-0.4566306471824646,0.417403906583786,0.0465182326734066
1781099265306427000,28.746427001953126,-0.161128431558609,0.24317537248134613,-0.011696869507431984
1781099265346548000,28.7865478515625,-0.23115785419940948,-0.18760398030281067,0.24930302798748016
1781099265386669000,28.8266689453125,-0.17953993380069733,-0.1610189825296402,0.29043662548065186
1781099265426790000,28.866789794921875,-0.20741763710975647,-0.19708164036273956,0.009343434125185013
1781099265466910200,28.90691015625,-0.14852555096149445,-0.238122820854187,0.11812424659729004
1781099265507031300,28.94703125,-0.22988753020763397,-0.05922284349799156,0.08381394296884537
1781099265547152100,28.987152099609375,-0.19845503568649292,-0.13858450949192047,-0.004339088220149279
1781099265587273200,29.027273193359374,-0.07173463702201843,-0.1873781532049179,-0.25921717286109924
1781099265627394300,29.067394287109376,-0.10333278030157089,-0.23383140563964844,-0.3063599169254303
1781099265667515100,29.10751513671875,-0.13112500309944153,-0.06971676647663116,-0.18411816656589508
1781099265707636200,29.14763623046875,-0.07948577404022217,-0.22663527727127075,-0.16106478869915009
1781099265747757300,29.18775732421875,-0.21803726255893707,-0.5904337167739868,-0.27502569556236267
1781099265787878100,29.227878173828124,-0.1074388399720192,-0.30218249559402466,0.0031443943735212088
1781099265827999200,29.267999267578126,-0.3697434365749359,-0.252921998500824,-0.08137821406126022
1781099265868120300,29.308120361328125,-0.29871106147766113,-0.5969390273094177,-0.035889558494091034
1781099265908241200,29.3482412109375,-0.31031152606010437,-0.2845819294452667,0.05005145072937012
1781099265948362200,29.3883623046875,-0.2018902450799942,-0.23002095520496368,0.04749055206775665
1781099265988483000,29.428483154296874,-0.17924699187278748,-0.26540398597717285,-0.07490859925746918
1781099266028604000,29.46860400390625,-0.1941516399383545,-0.3057498037815094,0.1723211705684662
1781099266068725000,29.50872509765625,-0.2666796147823334,-0.11248340457677841,0.10554400086402893
1781099266108845800,29.548845703125,-0.2814825475215912,-0.23276294767856598,-0.06132674217224121
1781099266148967000,29.588966796875,-0.2840210795402527,-0.15377092361450195,0.00247594085521996
1781099266189087700,29.629087646484376,-0.23276320099830627,-0.10555092990398407,0.013875069096684456
1781099266229208800,29.669208740234374,-0.19523607194423676,-0.2968657612800598,-0.050639476627111435
1781099266269329700,29.70932958984375,-0.2066996544599533,-0.1645231693983078,0.07189948856830597
1781099266309450800,29.74945068359375,-0.2613399922847748,0.14395983517169952,-0.1366870105266571
1781099266349571800,29.78957177734375,-0.31225723028182983,0.052436575293540955,-0.053203035145998
1781099266389692000,29.82969189453125,-0.27251753211021423,-0.07882504165172577,-0.13175803422927856
1781099266429813000,29.86981298828125,-0.2974167764186859,-0.2178202122449875,-0.05607312172651291
1781099266469932800,29.909932861328127,-0.34354111552238464,-0.0022088258992880583,-0.03533721715211868
1781099266510054000,29.950053955078126,-0.4159170389175415,-0.06768050789833069,-0.047263920307159424
1781099266550175000,29.990175048828124,-0.4106471836566925,0.045998118817806244,-0.011980496346950531
1781099266590295800,30.0302958984375,-0.3900359272956848,0.033196836709976196,0.02953898347914219
1781099266630417000,30.0704169921875,-0.3623989522457123,-0.038904521614313126,-0.022658174857497215
1781099266670538000,30.1105380859375,-0.31883683800697327,-0.12093973904848099,-0.11228366196155548
1781099266710658800,30.150658935546875,-0.424137681722641,-0.04735153540968895,0.038898129016160965
1781099266750780000,30.19077978515625,-0.3135688304901123,0.1158355250954628,0.35879436135292053
1781099266790901000,30.23090087890625,-0.37886208295822144,-0.18931639194488525,-0.06161382794380188
1781099266831021800,30.271021728515624,-0.24561908841133118,-0.19128207862377167,0.08203281462192535
1781099266871143000,30.311142822265627,-0.23985520005226135,0.13180357217788696,0.09854308515787125
1781099266911264000,30.351263916015625,-0.318261057138443,0.11798256635665894,-0.3222994804382324
1781099266951384800,30.391384765625,-0.3079170882701874,-0.15639546513557434,-0.04583806172013283
1781099266991506700,30.431506591796875,-0.2853925824165344,0.16827556490898132,0.2364194542169571
1781099267031627800,30.471627685546874,-0.29039961099624634,0.06913220137357712,0.09308920055627823
1781099267071748600,30.51174853515625,-0.31990930438041687,-0.5949323177337646,-0.13464117050170898
1781099267111869700,30.55186962890625,-0.34499412775039673,-0.19283735752105713,0.24010740220546722
1781099267151990500,30.591990478515626,-0.14310309290885925,0.32318711280822754,0.23888155817985535
1781099267192111600,30.632111572265625,-0.2817603051662445,-0.07984209805727005,-0.33376413583755493
1781099267232232400,30.672232421875,-0.27858662605285645,-0.44417452812194824,0.018751051276922226
1781099267272353500,30.712353515625,-0.35037851333618164,0.21944980323314667,0.1986859291791916
1781099267312474600,30.752474609375,-0.43400150537490845,0.2857763469219208,0.013279319740831852
1781099267352595500,30.792595458984376,-0.4060199558734894,-0.2827262282371521,-0.1890934854745865
1781099267392716500,30.832716552734375,-0.40164676308631897,0.023726901039481163,0.0885610282421112
1781099267432837600,30.872837646484374,-0.3455861508846283,0.14638997614383698,0.18350990116596222
1781099267472958500,30.91295849609375,-0.2740022540092468,-0.04500555619597435,-0.10553228110074997
1781099267513079600,30.95307958984375,-0.3220997452735901,-0.15073572099208832,0.038309305906295776
1781099267553200600,30.99320068359375,-0.284976065158844,-0.04598879814147949,0.24703934788703918
1781099267593321500,31.033321533203125,-0.304730087518692,0.006578274071216583,-0.12150245904922485
1781099267633442600,31.073442626953124,-0.34865492582321167,0.0641867071390152,0.15941442549228668
1781099267673563600,31.113563720703127,-0.30145251750946045,0.04157860204577446,0.015482286922633648
1781099267713684500,31.1536845703125,-0.31087398529052734,-0.1553400605916977,-0.1747632920742035
1781099267753805600,31.1938056640625,-0.2956060767173767,0.10715574771165848,0.12484100461006165
1781099267793926700,31.2339267578125,-0.39865949749946594,0.21725721657276154,0.018915634602308273
1781099267834047500,31.274047607421874,-0.3593643009662628,-0.19685101509094238,-0.07931292802095413
1781099267874168600,31.31416845703125,-0.3713517189025879,-0.04751824960112572,0.09786371141672134
1781099267914289700,31.35428955078125,-0.3160969913005829,0.1726388782262802,0.23954574763774872
1781099267954410500,31.394410400390626,-0.25790104269981384,0.009754626080393791,0.011681423522531986
1781099267994530800,31.43453076171875,-0.2641158103942871,-0.14010250568389893,0.1834619641304016
1781099268034652000,31.47465185546875,-0.2539617121219635,0.08027113974094391,0.006988401059061289
1781099268074773000,31.51477294921875,-0.38915812969207764,0.0018338527297601104,-0.037037644535303116
1781099268114893800,31.554893798828125,-0.333390474319458,0.4720780551433563,0.03772154450416565
1781099268155015000,31.595014892578124,-0.26604631543159485,0.3886052668094635,-0.16779112815856934
1781099268195136000,31.635135986328127,-0.37297970056533813,-0.20769567787647247,-0.005052016582340002
1781099268235256800,31.6752568359375,-0.22500862181186676,-0.17563307285308838,0.25622138381004333
1781099268275378000,31.7153779296875,-0.301632285118103,0.09802776575088501,0.1721605807542801
1781099268315499000,31.7554990234375,-0.2794111371040344,-0.09157119691371918,0.08249194920063019
1781099268355619800,31.795619873046874,-0.23313552141189575,0.006220611743628979,0.12459173053503036
1781099268395741000,31.835740966796877,-0.20370066165924072,0.05802415311336517,-0.020604077726602554
1781099268435862000,31.875862060546876,-0.1602136343717575,-0.0027920580469071865,-0.073680080473423
1781099268475982800,31.91598291015625,-0.27011698484420776,0.11862199008464813,0.15959206223487854
1781099268516104000,31.95610400390625,-0.20021457970142365,0.13946442306041718,-0.011264106258749962
1781099268556225000,31.99622509765625,-0.38749977946281433,-0.3105733096599579,-0.000014381069377122913
1781099268596345900,32.03634594726562,-0.2203531414270401,0.07456211745738983,0.1726577877998352
1781099268636467000,32.076467041015626,-0.29486411809921265,0.22095608711242676,0.012923255562782288
1781099268676588000,32.11658813476563,-0.3060712516307831,-0.28469645977020264,0.017538247630000114
1781099268716708900,32.156708984375,-0.14973916113376617,0.04404735192656517,0.10008132457733154
1781099268756830000,32.196829833984374,-0.30500492453575134,0.19759562611579895,0.14384186267852783
1781099268796951000,32.23695092773438,-0.22614844143390656,-0.09969596564769745,-0.09925787895917892
1781099268837072000,32.27707177734375,-0.3640024662017822,-0.07438315451145172,0.059539224952459335
1781099268877193000,32.31719287109375,-0.27318519353866577,0.12668336927890778,-0.05933336541056633
1781099268917314000,32.35731396484375,-0.26300740242004395,0.0561375729739666,-0.0872291773557663
1781099268957435000,32.39743481445313,-0.19276678562164307,0.25676655769348145,0.20865227282047272
1781099268997556000,32.43755590820312,-0.37526896595954895,0.5298532247543335,0.7311112284660339
1781099269037677000,32.477677001953126,-0.21607664227485657,-0.10967190563678741,0.07784020155668259
1781099269077798000,32.5177978515625,-0.4638608694076538,-0.7581620216369629,0.0785488709807396
1781099269117919000,32.5579189453125,0.29633471369743347,-0.1359999179840088,0.5356661081314087
1781099269158040000,32.5980400390625,-0.46230238676071167,1.3690695762634277,-0.4051927626132965
1781099269198161000,32.63816088867188,-0.21965086460113525,-0.430263489484787,0.07685909420251846
1781099269238282000,32.67828198242187,-0.311648964881897,0.2805488407611847,0.43073832988739014
1781099269278403000,32.718403076171874,-0.1939561516046524,0.47306662797927856,0.13627314567565918
1781099269318524000,32.75852392578125,-0.20754626393318176,-0.15483272075653076,-0.20078742504119873
1781099269358645000,32.79864501953125,-0.157840758562088,0.01888474076986313,0.3111397624015808
1781099269398766000,32.83876611328125,-0.18607373535633087,0.4497799277305603,0.23644529283046722
1781099269438887200,32.87888720703125,-0.06653375178575516,-0.16422782838344574,-0.09772389382123947
1781099269479008000,32.91900805664063,-0.05715996026992798,-0.06269320845603943,-0.019893281161785126
1781099269519129000,32.95912915039062,-0.13677994906902313,0.06924112141132355,0.10385502874851227
1781099269559250200,32.999250244140626,-0.10828652232885361,-0.11656975746154785,0.052629921585321426
1781099269599371000,33.03937109375,-0.11269538849592209,-0.11979351192712784,-0.045096106827259064
1781099269639492000,33.0794921875,-0.16877037286758423,0.14166125655174255,0.056587643921375275
1781099269679613200,33.11961328125,-0.1030970886349678,0.09965734928846359,0.06928373128175735
1781099269719734000,33.15973413085938,-0.13581855595111847,-0.10217670351266861,0.06694041937589645
1781099269759855000,33.19985522460937,-0.1884354203939438,-0.06867732852697372,0.05245521664619446
1781099269799976200,33.23997607421875,-0.23577018082141876,0.04432911425828934,0.16630402207374573
1781099269840097000,33.280096923828125,-0.25108176469802856,0.1043357253074646,0.20563891530036926
1781099269880218000,33.32021801757813,-0.16314950585365295,0.06649726629257202,0.14401176571846008
1781099269920339200,33.36033911132812,-0.13237641751766205,-0.09324419498443604,0.027408987283706665
1781099269960460000,33.4004599609375,-0.08118486404418945,0.10140492022037506,0.09108037501573563
1781099270000581000,33.4405810546875,-0.076296366751194,0.12080391496419907,0.04302789270877838
1781099270040702000,33.48070190429687,-0.12546896934509277,0.058763448148965836,-0.0292364489287138
1781099270080823000,33.520822998046874,-0.12700694799423218,0.030476948246359825,0.1433776617050171
1781099270120944000,33.56094409179688,-0.07711848616600037,0.25917935371398926,0.04373602941632271
1781099270161065000,33.60106494140625,-0.13863830268383026,0.06675559282302856,0.15774089097976685
1781099270201186000,33.64118603515625,-0.16859807074069977,0.12830710411071777,0.1747741997241974
1781099270241307100,33.68130712890625,-0.09237014502286911,0.1558215469121933,0.1812608689069748
1781099270281428000,33.72142797851563,-0.17365887761116028,0.011326157487928867,0.09460347145795822
1781099270321549000,33.76154907226562,-0.05588723346590996,0.12530012428760529,0.08967449516057968
1781099270361670100,33.801670166015626,-0.13877545297145844,0.1867363303899765,0.047800544649362564
1781099270401791000,33.841791015625,0.016708139330148697,0.16708672046661377,0.1759966015815735
1781099270441911800,33.88191186523437,-0.1044454500079155,-0.02184457890689373,0.05555993318557739
1781099270482033000,33.922032958984374,-0.07498609274625778,0.007740743923932314,0.09430865943431854
1781099270522153700,33.96215380859375,-0.05295003205537796,0.3729506731033325,0.1679099053144455
1781099270562274800,34.00227490234375,-0.08895251154899597,0.12352167069911957,0.10260174423456192
1781099270602396000,34.04239599609375,-0.020187826827168465,0.06588473916053772,-0.01677711494266987
1781099270642516700,34.082516845703125,-0.04948046803474426,0.2120928168296814,0.28048545122146606
1781099270682637800,34.12263793945313,0.04559917747974396,0.2664359509944916,0.14607837796211243
1781099270722759000,34.16275903320312,-0.11055873334407806,0.12100258469581604,0.07127764075994492
1781099270762879700,34.202879638671874,-0.04354614391922951,0.19695806503295898,0.24545876681804657
1781099270803000800,34.243000732421876,-0.0036962011363357306,0.18608598411083221,0.1690388172864914
1781099270843122000,34.28312182617187,0.061477743089199066,0.19906942546367645,0.1005854606628418
1781099270883242800,34.32324267578125,-0.03566904738545418,0.17577369511127472,0.13496766984462738
1781099270923363800,34.36336376953125,0.08067247271537781,0.1379709243774414,0.10319375991821289
1781099270963485000,34.40348486328125,0.049854908138513565,0.37718668580055237,0.18459275364875793
1781099271003606800,34.44360668945313,0.003907123580574989,0.13024455308914185,0.016501745209097862
1781099271043726600,34.4837265625,0.045892924070358276,0.23639468848705292,0.2693891227245331
1781099271083847700,34.52384765625,0.06279706954956055,0.4091728627681732,0.06595718115568161
1781099271123968500,34.56396850585938,0.0888981819152832,0.09671242535114288,-0.12260022014379501
1781099271164089600,34.604089599609374,-0.052379585802555084,0.014677213504910469,0.12405190616846085
1781099271204210700,34.644210693359376,0.15411978960037231,0.38524967432022095,0.1499929577112198
1781099271244331500,34.68433154296875,0.04698135703802109,0.2376120239496231,-0.07857869565486908
1781099271284452600,34.72445263671875,0.10008052736520767,-0.09272913634777069,0.014486530795693398
1781099271324573700,34.76457373046875,0.014809838496148586,0.26113733649253845,0.07913423329591751
1781099271364694500,34.80469458007813,0.057745855301618576,0.3986507058143616,0.1921241730451584
1781099271404815600,34.84481567382812,0.06547194719314575,0.0525263249874115,-0.08871202915906906
1781099271444936700,34.884936767578125,0.013248161412775517,-0.009485380724072456,-0.18453815579414368
1781099271485057500,34.9250576171875,0.018250908702611923,0.33268287777900696,0.002829076023772359
1781099271525178600,34.9651787109375,0.14897216856479645,0.3173915445804596,0.061228469014167786
1781099271565299700,35.0052998046875,0.031568046659231186,0.025655295699834824,-0.095452219247818
1781099271605420800,35.0454208984375,0.06149505078792572,-0.07193250954151154,-0.09192566573619843
1781099271645541600,35.08554174804687,0.07632992416620255,0.12691932916641235,0.15080122649669647
1781099271685662700,35.125662841796874,0.08938074856996536,0.08050895482301712,0.11558225750923157
1781099271725783800,35.16578369140625,0.07222279906272888,-0.0493939146399498,0.03158455714583397
1781099271765904600,35.20590454101563,0.019882362335920334,-0.1308586746454239,-0.18759998679161072
1781099271806025700,35.24602563476562,0.03623896464705467,0.019776634871959686,-0.01817500963807106
1781099271846146800,35.286146728515625,0.029633792117238045,0.2385675609111786,-0.19750800728797913
1781099271886267600,35.326267578125,0.01239435188472271,0.0012751214671880007,-0.13673068583011627
1781099271926388700,35.366388671875,0.0763925090432167,-0.1081744059920311,-0.2347448617219925
1781099271966509800,35.406509765625,0.09664158523082733,-0.21659329533576965,-0.15667669475078583
1781099272006631000,35.446630859375,0.1414460837841034,-0.0788322314620018,-0.00045593318645842373
1781099272046752000,35.486751953125,0.12357866019010544,-0.20739953219890594,-0.06866321712732315
1781099272086872800,35.526872802734374,0.11754553765058517,-0.37826502323150635,-0.2827587425708771
1781099272126994000,35.56699389648438,0.15824955701828003,-0.1302160620689392,-0.08754662424325943
1781099272167115000,35.60711499023437,0.1449156403541565,-0.011149323545396328,-0.004119643941521645
1781099272207235800,35.64723583984375,0.132976695895195,-0.24979758262634277,-0.18001796305179596
1781099272247357000,35.68735693359375,0.07861784845590591,-0.49787476658821106,-0.15193413197994232
1781099272287478000,35.72747802734375,0.16684117913246155,-0.26042813062667847,0.03483228385448456
1781099272327598800,35.76759887695312,-0.016097743064165115,0.0719093456864357,-0.11915728449821472
1781099272367720000,35.807719970703126,-0.01101536676287651,-0.03272252529859543,-0.13636423647403717
1781099272407841000,35.84784106445313,0.026153573766350746,0.060383182018995285,-0.21303105354309082
1781099272447961900,35.8879619140625,0.005561479367315769,-0.10267950594425201,-0.035890888422727585
1781099272488083000,35.9280830078125,-0.01065264455974102,-0.07173197716474533,-0.0924748033285141
1781099272528204000,35.9682041015625,-0.009810020215809345,-0.13751977682113647,0.10712964832782745
1781099272568324900,36.00832495117187,-0.018219217658042908,-0.21565772593021393,0.03170653060078621
1781099272608446000,36.048446044921874,0.02575409971177578,-0.10051915049552917,-0.046073753386735916
1781099272648567000,36.08856713867188,0.06082180514931679,0.11798788607120514,0.042749062180519104
1781099272688687900,36.12868798828125,0.06030861288309097,0.049435459077358246,0.008621717803180218
1781099272728809000,36.16880908203125,0.07691927999258041,-0.006470948923379183,-0.1632472425699234
1781099272768930000,36.208929931640625,0.002692722249776125,-0.14090251922607422,-0.06362397968769073
1781099272809051000,36.24905078125,0.03916178271174431,0.10552003234624863,0.07294158637523651
1781099272849172000,36.289171875,-0.054057374596595764,0.0047119311057031155,0.024625185877084732
1781099272889293000,36.32929296875,0.03442668169736862,-0.1230955645442009,-0.004332430195063353
1781099272929414000,36.36941381835938,0.07335703819990158,0.024713335558772087,-0.0759458988904953
1781099272969535000,36.40953491210937,0.06052779033780098,-0.0767565667629242,0.09070167690515518
1781099273009655000,36.44965502929688,0.05636473745107651,0.15362843871116638,0.12063160538673401
1781099273049776000,36.48977612304687,0.07146060466766357,-0.05145679786801338,0.013908358290791512
1781099273089897200,36.529897216796876,0.024988707154989243,0.0009001484140753746,-0.1416945457458496
1781099273130018000,36.57001806640625,0.040292829275131226,0.18043474853038788,0.19830776751041412
1781099273170139100,36.61013916015625,0.053343649953603745,0.13604678213596344,0.03903581574559212
1781099273210260200,36.65026025390625,0.00914556160569191,-0.11091639846563339,-0.1423685997724533
1781099273250381000,36.69038110351563,0.10170292854309082,-0.004995024763047695,-0.11162213236093521
1781099273290502100,36.73050219726562,0.08382006734609604,0.16543583571910858,0.029694246128201485
1781099273330623200,36.770623291015625,0.0638791173696518,-0.02333887852728367,-0.00506799528375268
1781099273370744000,36.810744140625,0.0917283222079277,-0.061695586889982224,0.06889224797487259
1781099273410865200,36.850865234375,0.047565389424562454,-0.09345804154872894,-0.08442540466785431
1781099273450986200,36.890986328125,0.058583684265613556,-0.16281580924987793,-0.08664727956056595
1781099273491107000,36.931107177734376,0.07390964031219482,0.08739056438207626,0.045455630868673325
1781099273531228200,36.97122827148438,0.019902868196368217,0.0993201956152916,-0.06513186544179916
1781099273571349200,37.01134936523437,0.008383630774915218,0.04426386579871178,0.036143623292446136
1781099273611470000,37.051469970703124,0.03702379763126373,0.14572763442993164,0.013941648416221142
1781099273651591200,37.09159106445313,-0.025320004671812057,0.03567757084965706,0.10661698877811432
1781099273691712300,37.13171215820312,-0.05121125653386116,-0.10000329464673996,0.09885334223508835
1781099273731833000,37.1718330078125,0.03766055777668953,0.04964638128876686,0.14285941421985626
1781099273771954200,37.2119541015625,0.020201940089464188,0.11352762579917908,-0.015210111625492573
1781099273812075300,37.2520751953125,-0.025371402502059937,-0.012654010206460953,-0.030712904408574104
1781099273852196000,37.29219604492187,0.08716019988059998,0.05367175117135048,-0.039387352764606476
1781099273892317200,37.332317138671876,0.10074099153280258,0.12029338628053665,0.028804749250411987
1781099273932438000,37.37243798828125,0.09192965924739838,-0.014490259811282158,-0.09270890057086945
1781099273972558800,37.41255883789062,0.0884222760796547,0.10735681653022766,-0.10914060473442078
1781099274012680000,37.452679931640624,0.0963134840130806,-0.030974693596363068,0.1514614224433899
1781099274052800800,37.49280078125,0.09068889170885086,0.16209037601947784,-0.0513492077589035
1781099274092921900,37.532921875,0.05614342913031578,-0.027698205783963203,0.3044978380203247
1781099274133042700,37.57304272460937,0.003561445279046893,-0.07557731866836548,-0.06805334985256195
1781099274173163800,37.613163818359375,-0.0018604843644425273,-0.05546112731099129,-0.004661863669753075
1781099274213284600,37.65328466796875,0.06764429062604904,0.10561670362949371,0.13418816030025482
1781099274253405700,37.69340576171875,0.060010604560375214,0.15105502307415009,-0.15460741519927979
1781099274293526500,37.733526611328124,0.1489977389574051,0.0049066077917814255,-0.02918158657848835
1781099274333647600,37.773647705078126,0.0950855016708374,0.12246625870466232,-0.15768124163150787
1781099274373768700,37.81376879882812,0.03609222546219826,0.05458255112171173,-0.172374427318573
1781099274413889500,37.8538896484375,0.04410833865404129,0.20665757358074188,0.0013076120521873236
1781099274454010600,37.8940107421875,0.04560556635260582,0.0741080492734909,-0.10439538210630417
1781099274494131700,37.93413159179688,0.10220999270677567,0.09904855489730835,0.08090496808290482
1781099274534252500,37.97425244140625,0.10660074651241302,-0.12545245885849,-0.039746612310409546
1781099274574373600,38.01437353515625,0.07206620275974274,-0.09797956049442291,-0.13595783710479736
1781099274614494700,38.05449462890625,0.11887605488300323,0.02905402146279812,0.26658615469932556
1781099274654615600,38.09461547851563,0.11188498884439468,-0.021269602701067924,-0.1621556133031845
1781099274694736600,38.13473657226562,0.09471745043992996,-0.0849713534116745,-0.22689226269721985
1781099274734857700,38.174857666015626,0.09827063977718353,0.12462715059518814,0.10407181084156036
1781099274774978600,38.214978515625,0.05052708834409714,0.05938636139035225,-0.14191612601280212
1781099274815099600,38.255099609375,0.029500899836421013,-0.03483814001083374,-0.3165190815925598
1781099274855220700,38.295220703125,-0.02189677581191063,0.15836434066295624,0.13808223605155945
1781099274895341600,38.33534155273438,0.04959950968623161,0.13522014021873474,-0.00714685907587409
1781099274935462700,38.37546264648437,0.053895190358161926,0.043357860296964645,-0.23032641410827637
1781099274975583700,38.415583740234375,0.11335532367229462,-0.05596766248345375,0.03983796015381813
1781099275015704600,38.45570458984375,0.053827013820409775,0.03999348729848862,-0.05775544047355652
1781099275055825700,38.49582568359375,0.08772852271795273,0.13648194074630737,0.034449320286512375
1781099275095946800,38.53594677734375,0.046250853687524796,-0.07114368677139282,-0.11805926263332367
1781099275136067800,38.57606787109375,0.027765851467847824,0.10553734749555588,0.031326498836278915
1781099275176188700,38.61618872070313,0.07270323485136032,0.1852702498435974,0.08139152824878693
1781099275216309800,38.656309814453124,0.031145403161644936,0.03958282992243767,-0.0627392828464508
1781099275256430800,38.696430908203126,-0.009702161885797977,0.0031787490006536245,-0.03347273916006088
1781099275296551700,38.7365517578125,-0.020853616297245026,0.17144472897052765,0.034509774297475815
1781099275336672800,38.7766728515625,-0.008873919025063515,0.1999243050813675,-0.12011575698852539
1781099275376793900,38.8167939453125,0.0006540723843500018,0.14499181509017944,0.036933783441782
1781099275416914700,38.85691479492188,-0.013731258921325207,0.15925543010234833,-0.044975198805332184
1781099275457035800,38.89703588867187,-0.0000015978966985130683,0.07618638128042221,-0.10880637168884277
1781099275497156900,38.937156982421875,0.028321387246251106,0.22113850712776184,0.027838023379445076
1781099275537277700,38.977277587890626,0.06997349113225937,0.07021796703338623,-0.037029657512903214
1781099275577398800,39.01739868164063,0.10085843503475189,0.07603617757558823,-0.07114501297473907
1781099275617519900,39.057519775390624,0.11646189540624619,-0.03735376521945,-0.07320363819599152
1781099275657640700,39.097640625,0.1360742151737213,-0.07009918987751007,-0.19749310612678528
1781099275697761800,39.13776171875,0.14280295372009277,0.08079391717910767,0.030497722327709198
1781099275737883000,39.1778828125,0.10945698618888855,-0.08794184029102325,-0.09518536925315857
1781099275778003700,39.218003662109375,0.10833179950714111,-0.05952085182070732,-0.19274921715259552
1781099275818124800,39.25812475585938,0.16788993775844574,-0.0023289343807846308,0.013105948455631733
1781099275858246000,39.29824584960937,0.1171167716383934,-0.10907508432865143,-0.18153570592403412
1781099275898366700,39.33836669921875,0.17909838259220123,-0.1354939192533493,-0.20925521850585938
1781099275938487800,39.37848779296875,0.177004873752594,-0.0892862007021904,-0.08800894767045975
1781099275978609200,39.41860913085937,0.12707673013210297,-0.09972233325242996,-0.1578197181224823
1781099276018730200,39.458730224609376,0.13852858543395996,-0.006865096744149923,-0.08162828534841537
1781099276058851300,39.49885131835938,0.10252264887094498,-0.11731038242578506,-0.11447411775588989
1781099276098972200,39.53897216796875,0.04736511781811714,-0.15658774971961975,-0.04742530733346939
1781099276139093200,39.57909326171875,0.031019700691103935,-0.030675621703267097,-0.022175077348947525
1781099276179214300,39.61921435546875,-0.05168743059039116,-0.06269294023513794,-0.0346466600894928
1781099276219335200,39.65933520507812,-0.014688132330775261,0.03413693234324455,-0.10375142842531204
1781099276259456300,39.699456298828125,0.047685764729976654,0.13984152674674988,-0.1264365017414093
1781099276299577300,39.73957739257813,-0.012687565758824348,0.08955465257167816,-0.13518738746643066
1781099276339698200,39.7796982421875,-0.009576194919645786,0.040657948702573776,-0.04466121271252632
1781099276379819300,39.8198193359375,0.008344216272234917,-0.016925454139709473,0.07633578032255173
1781099276419940400,39.8599404296875,0.06790634989738464,-0.1510435789823532,0.12060844153165817
1781099276460061200,39.90006127929688,0.10080117732286453,-0.15438957512378693,-0.020309265702962875
1781099276500182300,39.94018237304687,0.16442888975143433,-0.041186317801475525,-0.05749072507023811
1781099276540303000,39.98030322265625,0.17820967733860016,-0.09592786431312561,-0.015862053260207176
1781099276580424200,40.02042407226563,0.14024019241333008,0.06059597060084343,-0.06557581573724747
1781099276620545000,40.060544921875,0.09317442029714584,0.1215357556939125,-0.30679747462272644
1781099276660666000,40.100666015625,0.0015448997728526592,0.04021160304546356,-0.29714351892471313
1781099276700787000,40.140786865234375,0.03299630060791969,0.26402926445007324,-0.22969950735569
1781099276740908000,40.18090795898438,0.05908196046948433,0.47253239154815674,-0.2739385962486267
1781099276781029000,40.22102905273437,-0.0752825066447258,0.12029338628053665,-0.0896177664399147
1781099276821150000,40.26114990234375,-0.041729602962732315,-0.17396540939807892,0.2208748608827591
1781099276861271000,40.30127099609375,-0.007710916455835104,-0.13475647568702698,0.3231274485588074
1781099276901392100,40.34139208984375,0.040829721838235855,0.048523858189582825,0.06483598798513412
1781099276941513000,40.381512939453124,-0.08356839418411255,-0.1194869801402092,0.031195735558867455
1781099276981634000,40.42163403320313,0.06321332603693008,-0.15855129063129425,0.145474374294281
1781099277021755100,40.46175512695312,0.10571417957544327,0.18231894075870514,0.018976088613271713
1781099277061876200,40.501876220703124,0.07572884857654572,0.16022083163261414,-0.27935200929641724
1781099277101997000,40.5419970703125,0.048524390906095505,-0.12862615287303925,-0.18468275666236877
1781099277142118100,40.5821181640625,0.04297037050127983,0.09051232039928436,-0.06365753710269928
1781099277182239200,40.6222392578125,0.08946729451417923,0.15206091105937958,-0.05799246206879616
1781099277222360000,40.662360107421875,0.016098542138934135,0.005738845560699701,-0.021348431706428528
1781099277262481200,40.70248120117188,0.09221062064170837,0.015895076096057892,-0.00018109494703821838
1781099277302602200,40.74260229492187,0.1292906105518341,-0.04657735675573349,-0.05772561579942703
1781099277342723300,40.782723388671876,0.09313313663005829,-0.014707307331264019,-0.049499642103910446
1781099277382844200,40.82284423828125,0.08981164544820786,0.06546023488044739,0.01661040261387825
1781099277422965200,40.86296533203125,0.057744789868593216,-0.023913055658340454,-0.08428558707237244
1781099277463086300,40.90308642578125,0.043418847024440765,-0.06562108546495438,-0.06581949442625046
1781099277503207200,40.94320727539063,0.09387855976819992,0.012977317906916142,-0.05313432589173317
1781099277543328300,40.98332836914062,0.06546130031347275,-0.046614374965429306,-0.07278738915920258
1781099277583449300,41.023449462890625,0.0567500963807106,-0.07010132074356079,-0.09641921520233154
1781099277623570200,41.063570068359375,0.03456197306513786,0.027486750856041908,0.003955593332648277
1781099277663691300,41.10369116210938,0.057971157133579254,0.05287200212478638,-0.04748469591140747
1781099277703812400,41.14381225585937,0.043894752860069275,-0.06151502579450607,-0.02629019320011139
1781099277743933200,41.18393310546875,0.04765646904706955,-0.005979062989354134,-0.01369024533778429
1781099277784054300,41.22405419921875,0.015275092795491219,-0.01907782070338726,0.0096246637403965
1781099277824175400,41.26417529296875,0.03158162906765938,0.004266916774213314,-0.0408739298582077
1781099277864296200,41.304296142578124,0.05722946673631668,-0.003319896524772048,-0.05145307257771492
1781099277904417300,41.34441723632813,0.07267473638057709,0.0212461668998003,-0.07421111315488815
1781099277944538400,41.38453833007812,0.06411080807447433,0.010209494270384312,-0.03664882481098175
1781099277984659000,41.42465893554687,0.09458669275045395,0.0030418625101447105,-0.00752103328704834
1781099278024779800,41.46477978515625,0.02748834900557995,-0.023671241477131844,-0.15778829157352448
1781099278064900900,41.50490087890625,0.04249020293354988,-0.058218032121658325,-0.060261476784944534
1781099278105022000,41.54502197265625,0.05929022282361984,0.12562502920627594,-0.0835830420255661
1781099278145142800,41.585142822265624,0.03166019171476364,0.02767051011323929,-0.003278883872553706
1781099278185262800,41.62526293945312,0.08283815532922745,-0.02136547677218914,-0.05221366882324219
1781099278225383700,41.6653837890625,0.0923301950097084,-0.2020457684993744,-0.11376171559095383
1781099278265504800,41.7055048828125,0.07376530021429062,-0.20136906206607819,-0.09505461156368256
1781099278305625900,41.7456259765625,0.09803042560815811,-0.07364945113658905,-0.02382170967757702
1781099278345747000,41.785746826171874,0.05228504166007042,-0.03603310137987137,-0.07009093463420868
1781099278385867800,41.82586767578125,0.05078674852848053,-0.10043951869010925,-0.01619468256831169
1781099278425988900,41.86598876953125,0.06744135916233063,-0.10774590075016022,-0.10003232210874557
1781099278466110000,41.90610986328125,-0.010011089034378529,-0.05909740924835205,-0.12219568341970444
1781099278506230800,41.946230712890625,-0.0641811192035675,-0.00020666129421442747,0.038721028715372086
1781099278546351900,41.98635180664063,-0.027904069051146507,-0.021998776122927666,-0.08400488644838333
1781099278586473000,42.02647290039062,-0.08225678652524948,-0.12141404300928116,-0.03953702375292778
1781099278626593800,42.06659375,-0.055571116507053375,-0.12302739173173904,0.034035198390483856
1781099278666715000,42.10671484375,-0.025408154353499413,-0.13282915949821472,-0.0966530367732048
1781099278706836000,42.1468359375,-0.058940548449754715,-0.020837103947997093,0.006587328854948282
1781099278746956800,42.186956787109374,0.018331335857510567,0.07119827717542648,0.026496855542063713
1781099278787078000,42.227077880859376,0.013260943815112114,-0.07613524794578552,-0.031382955610752106
1781099278827199000,42.26719897460937,0.053343914449214935,-0.22753915190696716,0.001469532260671258
1781099278867319800,42.30731982421875,0.026643328368663788,-0.20411744713783264,0.015748869627714157
1781099278907441000,42.34744091796875,-0.01865304633975029,-0.1822105497121811,-0.014044179581105709
1781099278947562000,42.38756201171875,-0.026150111109018326,-0.14611433446407318,-0.10943887382745743
