time,seconds_elapsed,z,y,x
1781099236662109700,0.102109619140625,0.0016746711917221546,0.04221160709857941,-0.013333488255739212
1781099236687184600,0.1271845703125,-0.008743246085941792,0.014578258618712425,-0.019155871123075485
1781099236712259600,0.152259521484375,-0.025471508502960205,-0.027442481368780136,0.015905022621154785
1781099236737334500,0.17733447265625,-0.02187487669289112,-0.006583430338650942,0.003021225333213806
1781099236762409700,0.20240966796875,-0.027151869609951973,-0.019505828619003296,-0.028992854058742523
1781099236787484700,0.227484619140625,-0.01542757824063301,-0.05235012620687485,-0.04154781624674797
1781099236812559600,0.2525595703125,-0.002011621370911598,-0.06315567344427109,0.028713032603263855
1781099236837634600,0.277634521484375,-0.010582802817225456,-0.06416719406843185,0.0669594407081604
1781099236862709500,0.30270947265625,-0.01549302227795124,-0.011337323114275932,0.038734838366508484
1781099236887784400,0.327784423828125,-0.00930764153599739,0.040393054485321045,-0.024526508525013924
1781099236912859600,0.352859619140625,0.0046280138194561005,0.06303693354129791,-0.03737104684114456
1781099236937934600,0.3779345703125,-0.001467429450713098,0.005598138552159071,-0.005339347291737795
1781099236963008800,0.4030087890625,-0.0023623062297701836,0.025011098012328148,0.022734833881258965
1781099236988083700,0.428083740234375,0.008910340256989002,0.06311450898647308,0.004540120717138052
1781099237013159000,0.453158935546875,0.00915728323161602,0.05804630368947983,-0.012453990988433361
1781099237038233900,0.47823388671875,0.000049320515245199203,0.03262145817279816,0.031524963676929474
1781099237063309800,0.503309814453125,-0.01640251651406288,0.01543699111789465,0.08304821699857712
1781099237088384800,0.528384765625,-0.010323398746550083,0.06905494630336761,0.049506932497024536
1781099237113459700,0.553459716796875,-0.009276803582906723,0.08413730561733246,0.012954726815223694
1781099237138535000,0.578534912109375,-0.021267589181661606,0.04284736141562462,0.020756829530000687
1781099237163609900,0.60360986328125,-0.03193316236138344,0.044374626129865646,-0.0005062655545771122
1781099237188685000,0.62868505859375,-0.02778555452823639,0.07959173619747162,-0.057789262384176254
1781099237213760000,0.653760009765625,-0.022687070071697235,0.027045758441090584,-0.021452732384204865
1781099237238835000,0.6788349609375,-0.030772458761930466,-0.07128389924764633,0.06101631000638008
1781099237263910000,0.703909912109375,-0.017288384959101677,-0.2091892659664154,0.04436615854501724
1781099237288984800,0.72898486328125,0.0006995194125920534,-0.22455854713916779,-0.021233221516013145
1781099237314060000,0.75406005859375,0.010317258536815643,-0.01566152088344097,-0.131547212600708
1781099237339135000,0.779135009765625,0.0038676680997014046,0.1511024385690689,-0.19201718270778656
1781099237364211000,0.8042109375,0.02634035050868988,0.1447618454694748,-0.0892544761300087
1781099237389286000,0.829285888671875,0.013399302028119564,0.06919020414352417,0.01403041835874319
1781099237414360800,0.85436083984375,0.018401717767119408,0.009497374296188354,-0.001738501712679863
1781099237439436000,0.87943603515625,0.011806830763816833,-0.008221333846449852,-0.05112319067120552
1781099237464511000,0.904510986328125,-0.01307674590498209,-0.0012520449236035347,-0.03927033767104149
1781099237489586000,0.9295859375,-0.04744921252131462,-0.06692402064800262,0.08054036647081375
1781099237514660900,0.954660888671875,-0.06949566304683685,-0.10553532838821411,0.0847012847661972
1781099237539737000,0.979737060546875,-0.09764846414327621,-0.080736443400383,0.005636535584926605
1781099237564812000,1.00481201171875,-0.09303519874811172,0.05230369046330452,-0.07125197350978851
1781099237589887000,1.029886962890625,-0.10096856951713562,0.1360434740781784,-0.14590126276016235
1781099237614962000,1.0549619140625,-0.10667978972196579,0.10922345519065857,-0.12303569167852402
1781099237640036900,1.080036865234375,-0.12989850342273712,-0.018640633672475815,0.04245955869555473
1781099237665111800,1.10511181640625,-0.15526622533798218,-0.17926010489463806,0.21315057575702667
1781099237690188000,1.13018798828125,-0.13624289631843567,-0.25518572330474854,0.2198365181684494
1781099237715263000,1.155262939453125,-0.09304799884557724,-0.1570170372724533,0.09874660521745682
1781099237740338000,1.180337890625,-0.05388094484806061,-0.0019312488147988915,-0.11963137239217758
1781099237765412900,1.205412841796875,-0.03133536875247955,0.023609478026628494,-0.15885035693645477
1781099237790488800,1.23048876953125,-0.05600692331790924,-0.075029656291008,-0.08314710110425949
1781099237815564000,1.25556396484375,-0.04972819983959198,-0.10350209474563599,-0.06007421389222145
1781099237840639000,1.280638916015625,-0.05101677030324936,-0.07161493599414825,-0.0031753680668771267
1781099237865714000,1.3057138671875,-0.042093198746442795,-0.0011231714161112905,-0.037585217505693436
1781099237890790000,1.330789794921875,-0.027045942842960358,0.05451192706823349,-0.14916273951530457
1781099237915864800,1.35586474609375,-0.028140904381871223,0.04781042039394379,-0.18139350414276123
1781099237940940000,1.38093994140625,-0.04210565984249115,0.027628660202026367,-0.15562498569488525
1781099237966015000,1.406014892578125,-0.01245230995118618,0.0739237442612648,-0.18105646967887878
1781099237991091200,1.43109130859375,-0.024800311774015427,0.07812625914812088,-0.15155233442783356
1781099238016166100,1.456166259765625,-0.033590175211429596,0.018102839589118958,-0.07383742183446884
1781099238041241000,1.481240966796875,-0.013081945478916168,0.03817485645413399,-0.05994927138090134
1781099238066317300,1.5063173828125,-0.01392261404544115,0.06648551672697067,-0.04772559925913811
1781099238091392300,1.531392333984375,-0.01644577644765377,0.07852208614349365,-0.037004321813583374
1781099238116467200,1.55646728515625,-0.024899251759052277,0.02606826275587082,-0.01875878870487213
1781099238141543200,1.581543212890625,-0.030380303040146828,-0.048455242067575455,-0.008783118799328804
1781099238166618000,1.6066181640625,-0.010965592227876186,0.003776213154196739,-0.02335437200963497
1781099238191693300,1.631693359375,0.0036164461635053158,0.15280646085739136,-0.09565261006355286
1781099238216769300,1.656769287109375,0.008528758771717548,0.09266898036003113,-0.08939434587955475
1781099238241844200,1.68184423828125,0.004248498473316431,-0.04851294681429863,0.03574224188923836
1781099238266919200,1.706919189453125,-0.004945000167936087,-0.15827220678329468,0.037231478840112686
1781099238291995400,1.731995361328125,0.023669039830565453,-0.06263865530490875,-0.010608507320284843
1781099238317070300,1.7570703125,0.024591127410531044,-0.012051940895617008,-0.0697561725974083
1781099238342145300,1.782145263671875,0.01608828268945217,-0.026902226731181145,-0.08298692107200623
1781099238367221000,1.807220947265625,-0.0011056048097088933,-0.05709083750844002,-0.07095418870449066
1781099238392296200,1.832296142578125,-0.036854445934295654,-0.11153067648410797,-0.09310868382453918
1781099238417371400,1.857371337890625,-0.07655259221792221,-0.022081216797232628,-0.23575185239315033
1781099238442447000,1.882447021484375,-0.12176916748285294,0.0491362027823925,-0.46634921431541443
1781099238467522000,1.90752197265625,-0.1169223040342331,0.19228984415531158,-0.35006794333457947
1781099238492597000,1.932596923828125,-0.268893837928772,0.04478885233402252,-0.14760391414165497
1781099238517673200,1.957673095703125,-0.40134239196777344,-0.20826546847820282,-0.01721583679318428
1781099238542748200,1.982748046875,-0.4227014183998108,-0.4572722613811493,0.12278744578361511
1781099238567824100,2.00782421875,-0.3068450689315796,-0.34610989689826965,0.11807136237621307
1781099238592899300,2.0328994140625,-0.22835853695869446,0.07545090466737747,-0.054888252168893814
1781099238617974300,2.057974365234375,-0.21769551932811737,0.30745023488998413,-0.16817961633205414
1781099238643050200,2.08305029296875,-0.3082846701145172,0.004556708503514528,-0.11769530922174454
1781099238668125200,2.108125244140625,-0.21872012317180634,-0.07949710637331009,0.1428665667772293
1781099238693200100,2.1332001953125,-0.03469039127230644,-0.1274809092283249,0.17106221616268158
1781099238718276400,2.1582763671875,0.08105777949094772,0.09271137416362762,-0.009449237026274204
1781099238743351300,2.183351318359375,0.07354728877544403,0.2452695369720459,-0.055067989975214005
1781099238768426200,2.20842626953125,-0.0011696466244757175,0.059538766741752625,-0.0837569460272789
1781099238793502200,2.233502197265625,-0.0018883211305364966,-0.07341273128986359,-0.06538209319114685
1781099238818577400,2.258577392578125,0.019134270027279854,-0.27316418290138245,-0.01860649138689041
1781099238843653000,2.283653076171875,0.043848440051078796,-0.22323362529277802,0.012155238538980484
1781099238868728000,2.30872802734375,0.07390253245830536,-0.07558444142341614,-0.003618613351136446
1781099238893803000,2.333802978515625,0.07809147983789444,-0.042819757014513016,-0.08429742604494095
1781099238918879200,2.358879150390625,0.060477402061223984,-0.06554590910673141,-0.1115172803401947
1781099238943955000,2.383954833984375,0.022429801523685455,-0.11428181082010269,-0.01377398706972599
1781099238969030000,2.40902978515625,-0.019935498014092445,-0.1785375475883484,0.12828324735164642
1781099238994105900,2.43410595703125,-0.04788757488131523,-0.2815866470336914,0.22941409051418304
1781099239019180800,2.459180908203125,-0.02143314853310585,-0.37090760469436646,0.28587064146995544
1781099239044255700,2.484255859375,0.0026650531217455864,-0.21391016244888306,0.17685657739639282
1781099239069332000,2.50933203125,0.015030236914753914,-0.10643637180328369,0.03196636214852333
1781099239094407000,2.534406982421875,-0.01854328066110611,-0.019877133890986443,0.050329286605119705
1781099239119481900,2.55948193359375,-0.02801593206822872,0.06634529680013657,0.052789997309446335
1781099239144558000,2.58455810546875,-0.01813795045018196,0.15090520679950714,0.019842714071273804
1781099239169633000,2.609633056640625,0.0057159424759447575,0.2334180325269699,-0.019214695319533348
1781099239194708000,2.6347080078125,0.0033062866423279047,0.22676807641983032,-0.1260138750076294
1781099239219783700,2.65978369140625,-0.019157294183969498,0.14917303621768951,-0.10943284630775452
1781099239244858600,2.684858642578125,-0.02681858465075493,-0.014480709098279476,0.04629695415496826
1781099239269933800,2.709933837890625,-0.034039635211229324,-0.052685193717479706,0.17111727595329285
1781099239295009800,2.735009765625,-0.06992804259061813,-0.13105018436908722,0.2770831882953644
1781099239320084700,2.760084716796875,-0.07175388187170029,-0.03921104222536087,0.28438854217529297
1781099239345159700,2.78515966796875,-0.03823857754468918,0.15699979662895203,0.08980728685855865
1781099239370236000,2.81023583984375,-0.002414946909993887,0.20761790871620178,-0.1730303168296814
1781099239395310800,2.835310791015625,0.020518681034445763,0.17914137244224548,-0.388984352350235
1781099239420385800,2.8603857421875,-0.028102219104766846,0.08247126638889313,-0.48336851596832275
1781099239445461800,2.885461669921875,-0.1949261873960495,0.4145544171333313,-0.15046332776546478
1781099239470537000,2.910536865234375,-0.4243448078632355,0.48084717988967896,0.23456229269504547
1781099239495612000,2.93561181640625,-0.5861818194389343,-0.03121444582939148,0.3830631375312805
1781099239520687900,2.96068798828125,-0.6737781167030334,-0.44351768493652344,0.4308633804321289
1781099239545762800,2.9857626953125,-0.7898846864700317,-0.7531940937042236,0.3439948558807373
1781099239570837800,3.010837646484375,-0.8948150277137756,-0.6143178939819336,0.29454508423805237
1781099239595914000,3.0359140625,-0.9169021248817444,-0.45903268456459045,-0.021965419873595238
1781099239620989000,3.060989013671875,-0.8941472768783569,-0.03744657710194588,-0.13407787680625916
1781099239646063900,3.08606396484375,-0.8000047206878662,-0.051663242280483246,-0.1280236393213272
1781099239671139800,3.111139892578125,-0.7851828336715698,-0.06007232144474983,-0.07612946629524231
1781099239696215000,3.136215087890625,-0.7274479866027832,-0.6441741585731506,0.16076898574829102
1781099239721290000,3.1612900390625,-0.4897378385066986,-0.8927318453788757,0.40540868043899536
1781099239746365000,3.186364990234375,-0.5347084999084473,-0.6433400511741638,0.336819052696228
1781099239771440600,3.211440673828125,-0.614763617515564,-0.4612288475036621,0.2063724249601364
1781099239796515800,3.236515869140625,-0.716513454914093,-0.6244704127311707,0.20115065574645996
1781099239821590800,3.2615908203125,-0.7982595562934875,-0.6292442679405212,0.2070779651403427
1781099239846666800,3.286666748046875,-0.6355593800544739,-0.566193699836731,0.08460582047700882
1781099239871741700,3.31174169921875,-0.5617378354072571,-0.28120213747024536,-0.1206357330083847
1781099239896816600,3.336816650390625,-0.4099964499473572,0.05717264115810394,-0.23950642347335815
1781099239921266700,3.3612666015625,-0.27955561876296997,0.03370766341686249,-0.3008701801300049
1781099239946342000,3.386341796875,-0.25237902998924255,-0.24285130202770233,-0.21673785150051117
1781099239971417900,3.41141796875,-0.30296456813812256,-0.506797194480896,0.025352928787469864
1781099239996492800,3.436492919921875,-0.314253568649292,-0.6400712132453918,0.21355119347572327
1781099240021567700,3.461567626953125,-0.13894763588905334,-0.3737845718860626,0.13115400075912476
1781099240046644000,3.48664404296875,-0.04340390861034393,-0.08799692243337631,-0.05337390676140785
1781099240071719000,3.511718994140625,-0.03780354931950569,0.14622662961483002,-0.211446613073349
1781099240096793900,3.5367939453125,-0.10940205305814743,0.3474752604961395,-0.22519807517528534
1781099240121869800,3.561869873046875,-0.16366618871688843,0.21661628782749176,-0.27069878578186035
1781099240146944800,3.58694482421875,-0.15644969046115875,0.1344824731349945,-0.2779265344142914
1781099240172020000,3.61202001953125,-0.041240811347961426,0.2232283353805542,-0.3392676115036011
1781099240197095000,3.637094970703125,0.23419289290905,0.9578856825828552,-0.46834036707878113
1781099240222171000,3.6621708984375,0.2646528482437134,1.7216837406158447,-0.018003523349761963
1781099240247245800,3.687245849609375,0.4429514408111572,1.5551434755325317,0.05476462095975876
1781099240272321000,3.712321044921875,0.16680100560188293,1.0544103384017944,0.39553120732307434
1781099240297397000,3.73739697265625,-0.1275472342967987,0.29394280910491943,0.7423129081726074
1781099240322472000,3.762471923828125,-0.1540776789188385,-0.10219884663820267,0.8048569560050964
1781099240347547000,3.787546875,-0.022466003894805908,0.020852401852607727,1.4907256364822388
1781099240372621800,3.812621826171875,-0.33281248807907104,-0.6175439357757568,1.8379610776901245
1781099240397698000,3.837697998046875,-0.5411832332611084,-1.6714704036712646,1.709570050239563
1781099240422773000,3.86277294921875,-1.0222759246826172,-2.186854362487793,1.2906951904296875
1781099240447848000,3.887847900390625,-1.9120538234710693,-2.2511472702026367,0.33188191056251526
1781099240472924000,3.912923828125,-1.630025863647461,-0.7536664009094238,-0.22146734595298767
1781099240497998800,3.937998779296875,-1.0642386674880981,0.06107668951153755,-0.875240683555603
1781099240523073800,3.96307373046875,-0.6957052946090698,0.4615854024887085,-1.2621824741363525
1781099240548149800,3.988149658203125,-0.35368049144744873,-0.1304284632205963,-1.146531105041504
1781099240573224700,4.013224609375,-0.3277874290943146,-0.10332753509283066,-0.31153222918510437
1781099240598300000,4.0382998046875,-0.5262842774391174,-0.729503333568573,0.3534388542175293
1781099240623374800,4.063374755859375,0.10337884724140167,-1.3546347618103027,0.9129301309585571
1781099240648450800,4.088450927734375,0.42627134919166565,-0.9950575828552246,0.8756726980209351
1781099240673525800,4.11352587890625,0.01974795013666153,-1.3842066526412964,0.5640875101089478
1781099240698600700,4.1386005859375,-0.3088131546974182,-1.120934009552002,0.8429005146026611
1781099240723677000,4.163677001953125,-0.4229535162448883,0.21682830154895782,0.9197876453399658
1781099240748752000,4.188751953125,0.28360816836357117,-0.07246436923742294,0.09284421801567078
1781099240773826800,4.213826904296875,0.6111595034599304,-0.9982258677482605,0.056105174124240875
1781099240798901800,4.23890185546875,0.8393899202346802,-2.661267042160034,0.5131051540374756
1781099240823978000,4.26397802734375,1.141862392425537,-3.7501978874206543,1.018262267112732
1781099240849053000,4.289052978515625,1.3946455717086792,-3.9564452171325684,1.2562737464904785
1781099240874128000,4.3141279296875,1.6659176349639893,-3.983652114868164,1.3212248086929321
1781099240899203800,4.339203857421875,2.445739984512329,-3.3625078201293945,0.9728202223777771
1781099240924279000,4.364279052734375,3.247905731201172,-2.8623390197753906,0.03771258518099785
1781099240949353200,4.389353271484375,4.07813835144043,-2.174020528793335,-0.09052444249391556
1781099240974429400,4.414429443359375,3.8161416053771973,-0.007037341129034758,-0.3809172213077545
1781099240999504400,4.43950439453125,2.273852825164795,0.5637211799621582,-1.3196333646774292
1781099241024579300,4.464579345703125,1.858806848526001,0.10170462727546692,-1.9844104051589966
1781099241049654300,4.489654296875,2.2677361965179443,-1.6145169734954834,-1.9840362071990967
1781099241074730500,4.51473046875,2.7674646377563477,-2.8464362621307373,-0.23717941343784332
1781099241099805400,4.539805419921875,2.313706874847412,-2.6889266967773438,1.1685447692871094
1781099241124880400,4.56488037109375,1.3321036100387573,-3.318502187728882,1.5868438482284546
1781099241149956400,4.589956298828125,1.3760771751403809,-4.316028594970703,2.0368974208831787
1781099241175031300,4.61503125,1.0623971223831177,-4.849954128265381,2.1983540058135986
1781099241200106500,4.6401064453125,1.1509511470794678,-5.807236671447754,2.6858692169189453
1781099241225182200,4.66518212890625,1.4251339435577393,-5.53573751449585,3.4018149375915527
1781099241250257200,4.690257080078125,1.646215558052063,-5.16990852355957,3.5123462677001953
1781099241275332400,4.715332275390625,1.588470220565796,-5.921961307525635,1.9784265756607056
1781099241300408300,4.740408203125,0.22867216169834137,-0.8135714530944824,-3.3646085262298584
1781099241325483300,4.765483154296875,2.2951810359954834,1.1698378324508667,-1.4322600364685059
1781099241350558200,4.79055810546875,1.8186753988265991,0.6581127047538757,-1.3153865337371826
1781099241375634400,4.815634521484375,1.6007012128829956,-0.317697674036026,-1.5518784523010254
1781099241400709400,4.84070947265625,1.7415212392807007,-1.5202516317367554,-0.1432441622018814
1781099241425784300,4.865784423828125,2.2508020401000977,-1.2655093669891357,0.19815020263195038
1781099241450860300,4.8908603515625,1.8299075365066528,0.5094771981239319,-0.6813479065895081
1781099241475935200,4.915935302734375,1.2849957942962646,0.5712704062461853,-0.8420730233192444
1781099241501010400,4.941010498046875,0.2960442304611206,-2.605447292327881,1.128448486328125
1781099241526086400,4.96608642578125,0.13403354585170746,-3.799771547317505,1.7199201583862305
1781099241551161300,4.991161376953125,2.182277202606201,-1.8669506311416626,0.2093546837568283
1781099241576237600,5.016237548828125,0.7213523387908936,-0.8300721049308777,0.3049801290035248
1781099241601312500,5.0413125,0.7015036344528198,-0.5235598087310791,0.2985556125640869
1781099241626387500,5.066387451171875,0.09561978280544281,-0.47864830493927,-0.0256043653935194
1781099241651463200,5.091463134765625,0.09508658200502396,-0.5201155543327332,0.06592602282762527
1781099241676538000,5.1165380859375,0.25299233198165894,-0.6437946557998657,0.21128375828266144
1781099241701613300,5.14161328125,-0.0028460335452109575,-0.1770453304052353,0.03819191828370094
1781099241726689300,5.166689208984375,-0.03877254202961922,-0.03532496839761734,-0.06985989958047867
1781099241751764200,5.19176416015625,0.1470532864332199,-0.010999556630849838,-0.11735864728689194
1781099241776840400,5.21684033203125,1.6921563148498535,0.6870682239532471,-0.10867318511009216
1781099241801915400,5.241915283203125,2.435270071029663,-0.15580792725086212,0.021135995164513588
1781099241826990300,5.266990234375,2.7425642013549805,-1.2158634662628174,0.4052063524723053
1781099241852066300,5.29206640625,3.1806323528289795,-1.2632814645767212,0.3284203112125397
1781099241877141200,5.317141357421875,3.4883434772491455,-0.5319709777832031,-0.9536651968955994
1781099241902217500,5.342217529296875,2.830348014831543,-0.9298102855682373,-1.2816331386566162
1781099241927292400,5.36729248046875,2.572378635406494,0.26006385684013367,0.14649759232997894
1781099241952367900,5.392367919921875,2.1036882400512695,0.043794404715299606,-0.3015221655368805
1781099241977442800,5.41744287109375,3.4073195457458496,0.5435560345649719,-1.417553186416626
1781099242002518000,5.44251806640625,0.49870383739471436,0.10370738804340363,-1.8860456943511963
1781099242027593700,5.46759375,0.0767907202243805,-1.613200306892395,-1.0732996463775635
1781099242052669000,5.4926689453125,-1.1407769918441772,-0.7753329873085022,-0.17806881666183472
1781099242077744600,5.51774462890625,-0.6406842470169067,0.03106396272778511,-0.37155187129974365
1781099242102819800,5.54281982421875,-0.15406599640846252,0.4417685270309448,-0.3081299364566803
1781099242127894800,5.567894775390625,-0.23327793180942535,0.29163485765457153,0.13124427199363708
1781099242152970800,5.592970703125,-0.10282274335622787,0.18574663996696472,-0.016069291159510612
1781099242178045700,5.618045654296875,0.011961533688008785,-0.08784393221139908,0.20185202360153198
1781099242203122000,5.643121826171875,-0.003556585870683193,-0.01347934640944004,0.014308881014585495
1781099242228196900,5.66819677734375,-0.0819656103849411,0.04799725115299225,-0.08045332878828049
1781099242253272800,5.69327294921875,-0.0972914844751358,-0.0687146708369255,0.006019614636898041
1781099242278347800,5.71834765625,-0.0676146075129509,-0.037922218441963196,0.041471559554338455
1781099242303423000,5.743423095703125,-0.0835409015417099,-0.0033655031584203243,-0.009804502129554749
1781099242328499000,5.7684990234375,-0.13282349705696106,-0.09149577468633652,-0.026353348046541214
1781099242353574000,5.793573974609375,-0.18433170020580292,-0.06702258437871933,-0.003843264654278755
1781099242378649900,5.81864990234375,-0.21524794399738312,0.0021622320637106895,0.08922792971134186
1781099242403724800,5.843724853515625,-0.20322321355342865,0.05390981212258339,0.11385688930749893
1781099242428800800,5.86880078125,-0.1925504058599472,0.040682725608348846,0.09393659234046936
1781099242453875700,5.893875732421875,-0.21710535883903503,-0.031608473509550095,0.06084147468209267
1781099242478950700,5.91895068359375,-0.1884405016899109,-0.057174328714609146,0.07705149799585342
1781099242504027000,5.94402685546875,-0.11293589323759079,0.06213143840432167,0.13159753382205963
1781099242529101800,5.969101806640625,-0.012492766603827477,0.14594116806983948,0.12839286029338837
1781099242554177800,5.994177734375,0.06203120946884155,0.05957603082060814,0.07565397769212723
1781099242579252700,6.019252685546875,0.14559848606586456,0.009010856971144676,0.07164717465639114
1781099242604329000,6.044328857421875,0.2264356017112732,-0.00006531403778353706,0.04965589568018913
1781099242629404000,6.06940380859375,0.27488577365875244,0.03776926174759865,0.042532823979854584
1781099242654478800,6.094478759765625,0.30395761132240295,0.06278615444898605,0.054804105311632156
1781099242679554800,6.119554931640625,0.30808889865875244,-0.0036530049983412027,0.03335365653038025
1781099242704630000,6.144630126953125,0.27475225925445557,-0.052176788449287415,0.013497375883162022
1781099242729705700,6.169705810546875,0.26323646306991577,-0.03785891458392143,0.05323335528373718
1781099242754780700,6.19478076171875,0.23972584307193756,0.004087280482053757,0.13147196173667908
1781099242779857000,6.21985693359375,0.18177075684070587,-0.038961078971624374,0.15186947584152222
1781099242804931800,6.244931884765625,0.10970301181077957,-0.0885428637266159,0.15729382634162903
1781099242830006800,6.2700068359375,0.020568160340189934,-0.0783376693725586,0.1948051005601883
1781099242855082800,6.295082763671875,-0.0056935385800898075,0.02469523996114731,0.2770134508609772
1781099242880158000,6.320157958984375,0.05532347783446312,0.09908439964056015,0.3384948670864105
1781099242905234000,6.34523388671875,0.09899905323982239,0.09631962329149246,0.34036657214164734
1781099242930308900,6.370308837890625,0.09730738401412964,0.07727733254432678,0.2985554039478302
1781099242955384600,6.395384521484375,0.048974912613630295,0.06468979269266129,0.27835899591445923
1781099242980460500,6.42046044921875,0.04400448128581047,0.0588715486228466,0.2943173050880432
1781099243005535500,6.445535400390625,0.04791718348860741,0.016894057393074036,0.29809755086898804
1781099243030611500,6.470611572265625,0.02237517200410366,-0.04984622076153755,0.26309579610824585
1781099243055686400,6.495686279296875,-0.038681574165821075,-0.04153043404221535,0.15657298266887665
1781099243080762600,6.5207626953125,-0.11357549577951431,-0.01295002643018961,-0.09460911899805069
1781099243105837600,6.545837646484375,-0.14136898517608643,-0.06918572634458542,-0.2635296583175659
1781099243130912500,6.57091259765625,-0.08725405484437943,-0.06887010484933853,-0.24042750895023346
1781099243155988700,6.59598876953125,-0.03300680220127106,-0.09755542129278183,-0.05411325767636299
1781099243181063700,6.621063720703125,0.00604241993278265,-0.04688467085361481,0.11732302606105804
1781099243206139600,6.6461396484375,0.020826011896133423,0.016154825687408447,0.12857607007026672
1781099243231214600,6.671214599609375,0.028987150639295578,0.03403041884303093,0.057394709438085556
1781099243256289500,6.69628955078125,0.039237555116415024,0.0008289391989819705,-0.021168584004044533
1781099243281365800,6.72136572265625,0.049217589199543,-0.04208824411034584,-0.06211918964982033
1781099243306440700,6.746440673828125,0.06481309980154037,-0.02847895585000515,-0.03860735893249512
1781099243331516400,6.771516357421875,0.07835467159748077,-0.05125708505511284,0.012454638257622719
1781099243356591600,6.796591552734375,0.0510023795068264,-0.0732053741812706,0.04878094792366028
1781099243381666600,6.82166650390625,-0.009493573568761349,-0.07107412815093994,0.044822826981544495
1781099243406742500,6.846742431640625,-0.06980540603399277,-0.10561224073171616,0.026350069791078568
1781099243431817500,6.8718173828125,-0.10709685832262039,-0.11848082393407822,0.01928148791193962
1781099243456893700,6.896893798828125,-0.13595043122768402,-0.11736081540584564,0.01134039182215929
1781099243481968600,6.92196875,-0.15089283883571625,-0.08986500650644302,0.010978277772665024
1781099243507043600,6.947043701171875,-0.145231693983078,-0.06763891130685806,0.03052804246544838
1781099243532119600,6.97211962890625,-0.12238440662622452,-0.05416042357683182,0.05185282230377197
1781099243557194500,6.997194580078125,-0.08503088355064392,-0.037745650857686996,0.04421994462609291
1781099243582270700,7.022270751953125,-0.047914549708366394,-0.006183198653161526,0.03778909146785736
1781099243607345700,7.047345703125,-0.010393423959612846,0.04415282979607582,0.033453840762376785
1781099243632420600,7.072420654296875,0.028539268299937248,0.060162078589200974,0.0272092055529356
1781099243657496600,7.09749658203125,0.058476924896240234,0.04756806418299675,0.015139739029109478
1781099243682571800,7.12257177734375,0.07335928827524185,0.045662879943847656,0.014660472050309181
1781099243707647500,7.1476474609375,0.054702531546354294,0.041107118129730225,0.018224095925688744
1781099243732722400,7.172722412109375,0.035049665719270706,0.06249602138996124,0.019911449402570724
1781099243757797400,7.19779736328125,0.008558699861168861,0.05903422832489014,0.005153782200068235
1781099243782873600,7.22287353515625,-0.020468352362513542,0.01728004217147827,-0.018086988478899002
1781099243807948500,7.247948486328125,-0.03527781739830971,0.002822241047397256,-0.03966197371482849
1781099243833024500,7.2730244140625,-0.02085108496248722,-0.011250360868871212,-0.05111396685242653
1781099243858099700,7.298099609375,-0.05102401599287987,-0.01635259948670864,-0.04758405312895775
1781099243883174700,7.323174560546875,-0.0501919686794281,-0.04296556115150452,-0.007333802524954081
1781099243908250600,7.348250732421875,-0.05247607082128525,-0.0371696874499321,0.02766849286854267
1781099243933325600,7.37332568359375,-0.020821239799261093,-0.11929753422737122,0.0545506589114666
1781099243958400500,7.398400390625,-0.012666722759604454,-0.09894851595163345,0.03605680912733078
1781099243983476500,7.4234765625,-0.014611269347369671,-0.08369016647338867,-0.009450647979974747
1781099244008551400,7.448551513671875,-0.07375192642211914,-0.14303547143936157,-0.07022783905267715
1781099244033627400,7.47362744140625,-0.100211501121521,-0.032595179975032806,-0.07681567966938019
1781099244058702600,7.49870263671875,-0.15110492706298828,-0.045225415378808975,-0.03184115141630173
1781099244083777500,7.523777587890625,-0.10313226282596588,0.03997258096933365,-0.018333565443754196
1781099244108853200,7.548853271484375,-0.14651420712471008,-0.04079759865999222,0.014033079147338867
1781099244133928400,7.573928466796875,-0.06439118832349777,0.10843544453382492,0.054795075207948685
1781099244159004400,7.59900439453125,-0.12234307825565338,-0.030927471816539764,0.05346919596195221
1781099244184079400,7.624079345703125,0.06026359274983406,0.14788857102394104,0.03153494745492935
1781099244209154300,7.649154296875,-0.03235026076436043,-0.04895927384495735,-0.03564624488353729
1781099244234230500,7.67423046875,0.12370280921459198,0.06356099247932434,-0.09636890143156052
1781099244259305500,7.699305419921875,-0.0023825867101550102,0.014751065522432327,-0.08369771391153336
1781099244284381400,7.72438134765625,0.02576468698680401,0.17208164930343628,-0.030927393585443497
1781099244309456400,7.749456298828125,-0.12894733250141144,0.10977653414011002,0.052376605570316315
1781099244334531600,7.774531494140625,-0.11821874231100082,0.1548025757074356,0.12856832146644592
1781099244359607600,7.799607666015625,-0.10377372801303864,0.2741113305091858,0.200934499502182
1781099244384682500,7.8246826171875,-0.18781086802482605,0.32705727219581604,0.17097094655036926
1781099244409757400,7.84975732421875,-0.12075000256299973,0.3188965618610382,0.08353225886821747
1781099244434833400,7.87483349609375,0.04330327734351158,0.1837315708398819,0.1610514223575592
1781099244459908600,7.89990869140625,0.060717638581991196,0.1375143975019455,0.17542314529418945
1781099244484984300,7.924984375,0.0256041269749403,0.15291811525821686,0.1192869022488594
1781099244510059300,7.950059326171875,0.030873088166117668,0.08390871435403824,0.09038220345973969
1781099244535134500,7.975134521484375,0.028773706406354904,0.02248484641313553,0.013330803252756596
1781099244560210400,8.00021044921875,0.019144903868436813,-0.001828675507567823,-0.00914241373538971
1781099244585285400,8.025285400390626,-0.035333052277565,0.031914111226797104,0.0022044358775019646
1781099244610361600,8.050361572265626,-0.1013108491897583,0.005765444599092007,-0.01700771600008011
1781099244635436500,8.0754365234375,-0.07554357498884201,-0.09544391185045242,-0.011842695996165276
1781099244660511500,8.100511474609375,-0.006469546817243099,-0.020401261746883392,-0.0018279342912137508
1781099244685587500,8.12558740234375,0.1272653192281723,0.0951784998178482,-0.0047766417264938354
1781099244710662400,8.150662353515624,0.23612305521965027,0.15503136813640594,0.0018425919115543365
1781099244735737600,8.175737548828126,0.28834185004234314,0.10917811840772629,-0.020094849169254303
1781099244760813600,8.2008134765625,0.34263813495635986,0.17060846090316772,-0.013174801133573055
1781099244785888500,8.225888427734375,0.2450752854347229,0.1708255559206009,-0.00616284366697073
1781099244810964200,8.250964111328125,0.2373199611902237,0.2992143929004669,0.04852680116891861
1781099244836039400,8.276039306640625,0.08588719367980957,0.3297782242298126,0.004780033137649298
1781099244861114600,8.301114501953125,-0.13493502140045166,-0.00815672893077135,-0.0057682679034769535
1781099244886190300,8.3261904296875,-0.11627674847841263,-0.09678462892770767,0.05592188611626625
1781099244911265300,8.351265380859376,-0.05352925881743431,0.019688839092850685,0.05898897349834442
1781099244936341500,8.376341552734376,-0.060273945331573486,0.07917503267526627,-0.011876363307237625
1781099244961416700,8.401416748046875,-0.06493894010782242,-0.0021804908756166697,-0.06429045647382736
1781099244986491600,8.42649169921875,-0.03571297600865364,-0.08158905804157257,-0.041300561279058456
1781099245011567600,8.451567626953125,-0.05393578112125397,-0.09587299823760986,0.01430024765431881
1781099245036642600,8.476642578125,-0.018978824838995934,-0.004431259352713823,0.025405364111065865
1781099245061717500,8.501717529296876,0.008819757960736752,0.11573503911495209,-0.009577091783285141
1781099245086793700,8.526793701171876,-0.09512069821357727,0.0203494131565094,-0.006423354614526033
1781099245111868700,8.55186865234375,-0.08398979902267456,0.05995293706655502,0.01008606143295765
1781099245136944600,8.576944580078125,-0.06940465420484543,0.08817196637392044,-0.042369578033685684
1781099245162019800,8.602019775390625,-0.11997988075017929,-0.15060098469257355,-0.022171050310134888
1781099245187094800,8.6270947265625,0.04617823287844658,0.003546270774677396,-0.040375594049692154
1781099245212170500,8.65217041015625,-0.07900070399045944,-0.053635139018297195,-0.10997304320335388
1781099245237245400,8.677245361328126,0.006736059673130512,0.005910315550863743,-0.10792794823646545
1781099245262320600,8.702320556640625,-0.0531512126326561,-0.12196452170610428,-0.060701027512550354
1781099245287396600,8.727396728515625,0.039971642196178436,0.06971646845340729,0.003012518398463726
1781099245312471600,8.752471435546875,-0.0868663415312767,0.036368172615766525,0.05552086606621742
1781099245337547500,8.777547607421875,-0.09750103205442429,0.02823183685541153,0.0037520513869822025
1781099245362622700,8.802622802734374,-0.030796006321907043,0.17671987414360046,-0.01704374887049198
1781099245387697700,8.82769775390625,-0.0810631662607193,0.058195363730192184,0.018361380323767662
1781099245412773600,8.852773681640626,-0.04747530445456505,-0.02201886475086212,0.10255172848701477
1781099245437848600,8.8778486328125,0.06316807121038437,0.18008244037628174,0.12379781901836395
1781099245462923500,8.902923583984375,0.09022706001996994,0.18801191449165344,0.060722123831510544
1781099245487999700,8.927999755859375,0.03338510915637016,-0.1284431517124176,-0.08850618451833725
1781099245513074700,8.95307470703125,-0.002405589446425438,-0.25756505131721497,-0.15052978694438934
1781099245538150700,8.978150634765624,0.00570653798058629,-0.12459402531385422,-0.11006877571344376
1781099245563225600,9.0032255859375,0.04338865727186203,0.0018486216431483626,-0.07514574378728867
1781099245588300800,9.02830078125,0.11197612434625626,-0.048545729368925095,-0.05661584436893463
1781099245613376500,9.05337646484375,0.16003884375095367,-0.0939953476190567,-0.06320865452289581
1781099245638451500,9.078451416015625,0.19602273404598236,0.019218020141124725,-0.03579852730035782
1781099245663526700,9.103526611328125,0.16490529477596283,0.14030449092388153,-0.027526481077075005
1781099245688602600,9.1286025390625,0.10487034916877747,0.05377930402755737,-0.030398540198802948
1781099245713677600,9.153677490234376,0.0528104193508625,-0.012193655595183372,-0.006530440412461758
1781099245738753500,9.17875341796875,0.010894251056015491,0.01929590106010437,0.007316799834370613
1781099245763828500,9.203828369140625,-0.03926357999444008,0.07272576540708542,0.01021551713347435
1781099245788903700,9.228903564453125,-0.10430914908647537,0.027475910261273384,0.011073881760239601
1781099245813979600,9.253979736328125,-0.18226556479930878,-0.034811731427907944,0.05249551683664322
1781099245839054600,9.2790546875,-0.1885577142238617,-0.06788709759712219,0.1547064185142517
1781099245864130800,9.304130859375,-0.17250490188598633,-0.09258220344781876,0.24035800993442535
1781099245889205800,9.329205810546876,-0.1853538304567337,-0.08010437339544296,0.13322116434574127
1781099245914280700,9.35428076171875,-0.17915098369121552,-0.034282442182302475,0.014077020809054375
1781099245939356700,9.379356689453125,-0.14174136519432068,0.07728809863328934,0.0032906332053244114
1781099245964432000,9.404431884765625,-0.10655757784843445,0.12408433109521866,0.06602669507265091
1781099245989506800,9.4295068359375,-0.11584069579839706,0.03261759877204895,0.07352788746356964
1781099246014582500,9.45458251953125,-0.1355721354484558,-0.06836797297000885,0.041925083845853806
1781099246039657500,9.479657470703126,-0.10442568361759186,0.0029941590037196875,0.0047830683179199696
1781099246064733700,9.504733642578126,-0.010196452960371971,0.1457558423280716,-0.012917179614305496
1781099246089808600,9.52980859375,0.03787929192185402,0.00957886315882206,0.0143454410135746
1781099246114883600,9.554883544921875,0.07691672444343567,-0.06757066398859024,-0.030865449458360672
1781099246139959800,9.579959716796875,0.16479644179344177,0.06653129309415817,-0.053997233510017395
1781099246165034800,9.60503466796875,0.17198270559310913,0.10060110688209534,-0.04156634956598282
1781099246190109700,9.630109619140624,0.08445911109447479,0.08107834309339523,-0.016097338870167732
1781099246215185700,9.655185546875,0.08644675463438034,0.11758289486169815,-0.01647856831550598
1781099246240260600,9.680260498046875,0.09906615316867828,0.08789976686239243,-0.030811995267868042
1781099246265336800,9.7053369140625,0.016030529513955116,0.005269532557576895,-0.052693724632263184
1781099246290411800,9.730411865234375,-0.061133258044719696,0.016265399754047394,-0.0541192851960659
1781099246315486700,9.75548681640625,-0.06828735768795013,0.09121034294366837,-0.042910389602184296
1781099246340563000,9.78056298828125,-0.11721045523881912,0.0477035753428936,-0.05775647610425949
1781099246365638000,9.805637939453124,-0.15979093313217163,-0.02777200937271118,-0.037980638444423676
1781099246390712800,9.830712890625,-0.1429111659526825,0.03282216936349869,-0.028130274266004562
1781099246415788500,9.85578857421875,-0.09330857545137405,0.18359369039535522,-0.02176302671432495
1781099246440863500,9.880863525390625,-0.08531508594751358,0.07607115060091019,-0.026374585926532745
1781099246465939700,9.905939697265625,-0.07800734788179398,0.05673963576555252,-0.04012549668550491
1781099246491014700,9.9310146484375,-0.06656960397958755,0.11193598061800003,-0.0676032155752182
1781099246516089600,9.956089599609374,-0.03282914683222771,0.1386999487876892,-0.10346046835184097
1781099246541165600,9.98116552734375,-0.03568831831216812,0.21294142305850983,-0.10875243693590164
1781099246566240800,10.00624072265625,-0.059502556920051575,0.12788715958595276,-0.15177792310714722
1781099246591316700,10.031316650390625,-0.0854819044470787,0.11962158977985382,-0.176506906747818
1781099246616391700,10.0563916015625,-0.07350748032331467,0.22137491405010223,-0.14600993692874908
1781099246641466600,10.081466552734375,-0.08065243065357208,0.18927954137325287,-0.1256825029850006
1781099246666542800,10.10654296875,-0.12990641593933105,0.16080915927886963,-0.1631072759628296
1781099246691617800,10.13161767578125,-0.16874173283576965,0.2514699101448059,-0.1729511320590973
1781099246716693800,10.15669384765625,-0.15844900906085968,0.3170761466026306,-0.17220212519168854
1781099246741768700,10.181768798828125,-0.12987780570983887,0.30376318097114563,-0.19692927598953247
1781099246766844000,10.206843994140625,-0.14801855385303497,0.23883084952831268,-0.26449379324913025
1781099246791919600,10.231919677734375,-0.1648559421300888,0.2918790578842163,-0.3328002393245697
1781099246816994600,10.25699462890625,-0.13526105880737305,0.35694026947021484,-0.3961635231971741
1781099246842070800,10.28207080078125,-0.14230963587760925,0.3072008192539215,-0.46299049258232117
1781099246867145700,10.307145751953126,-0.21002766489982605,0.3294243812561035,-0.5956294536590576
1781099246892220700,10.332220703125,-0.28573012351989746,0.41840577125549316,-0.8167786002159119
1781099246917296600,10.357296630859375,-0.34817466139793396,0.4399477541446686,-0.9892371892929077
1781099246942371600,10.38237158203125,-0.4332367479801178,0.5064576268196106,-1.2149994373321533
1781099246967445800,10.40744580078125,-0.4719995856285095,0.3781917989253998,-1.452707052230835
1781099246992522000,10.43252197265625,-0.5061764717102051,0.33596470952033997,-1.6215360164642334
1781099247017597000,10.457596923828126,-0.4762575626373291,0.12187953293323517,-1.760190486907959
1781099247042673000,10.4826728515625,-0.4406842291355133,-0.2151431143283844,-1.8212281465530396
1781099247067748000,10.507748046875,-0.46145543456077576,-0.367412805557251,-1.7380917072296143
1781099247092823000,10.532822998046875,-0.508389949798584,-0.25337982177734375,-1.6415472030639648
1781099247117899000,10.55789892578125,-0.40900543332099915,-0.16645178198814392,-1.420706033706665
1781099247142974000,10.582973876953124,-0.30949097871780396,0.14487041532993317,-1.1106511354446411
1781099247168050200,10.60805029296875,-0.2641017436981201,0.22411319613456726,-0.7758593559265137
1781099247193125000,10.633125,-0.2179790586233139,0.19862136244773865,-0.4798964262008667
1781099247218200000,10.658199951171875,-0.15713082253932953,0.22568096220493317,-0.18683204054832458
1781099247243275800,10.68327587890625,-0.1203346773982048,0.15191766619682312,-0.006861653178930283
1781099247268351000,10.70835107421875,-0.056826040148735046,0.09193044900894165,0.21202166378498077
1781099247293427000,10.733427001953125,0.001631482387892902,0.13456492125988007,0.3156716823577881
1781099247318502000,10.758501953125,0.027313465252518654,0.08852773904800415,0.4766260087490082
1781099247343576800,10.783576904296876,-0.02795633114874363,0.17336182296276093,0.5583425760269165
1781099247368653000,10.808653076171876,-0.3950214982032776,-0.017809540033340454,0.40482908487319946
1781099247393728000,10.83372802734375,-0.6286729574203491,-0.05940845608711243,-0.04598455876111984
1781099247418804000,10.858803955078125,-0.34385058283805847,-0.3016543388366699,-0.010919834487140179
1781099247443879000,10.88387890625,-0.11506354808807373,-0.28918442130088806,0.04969498887658119
1781099247468953900,10.908953857421874,-0.11279448121786118,-0.045339398086071014,0.15789611637592316
1781099247494030000,10.934030029296874,-0.19352160394191742,-0.04923488199710846,0.2229408323764801
1781099247519105000,10.95910498046875,-0.18747307360172272,-0.06333601474761963,0.22476771473884583
1781099247544181000,10.984180908203125,-0.15425050258636475,-0.04249316453933716,0.1477053314447403
1781099247569256200,11.009256103515625,-0.15526925027370453,-0.1305733472108841,0.11920490860939026
1781099247594331100,11.0343310546875,-0.14364133775234222,-0.19488129019737244,0.15846386551856995
1781099247619406800,11.05940673828125,-0.10855258256196976,-0.08764146268367767,0.18392638862133026
1781099247644481800,11.084481689453124,-0.078064925968647,-0.013118683360517025,0.13584411144256592
1781099247669558000,11.10955810546875,-0.06960652023553848,-0.051414672285318375,0.06813424080610275
1781099247694633000,11.134633056640626,-0.03405814617872238,-0.162030428647995,0.038106538355350494
1781099247719708000,11.1597080078125,0.018422646448016167,-0.14070577919483185,0.06852225959300995
1781099247744784000,11.184783935546875,0.03177180886268616,-0.04044549912214279,0.19405709207057953
1781099247769859000,11.209859130859375,0.051204342395067215,-0.20290827751159668,0.29665717482566833
1781099247794935000,11.23493505859375,0.05289195477962494,-0.2772895395755768,0.3285503685474396
1781099247820010000,11.260010009765624,-0.008804521523416042,-0.3023529350757599,0.3111891746520996
1781099247845086000,11.2850859375,-0.003176236990839243,-0.22513294219970703,0.33586013317108154
1781099247870161200,11.3101611328125,0.017774147912859917,-0.19079117476940155,0.32556071877479553
1781099247895236000,11.335236083984375,-0.018683917820453644,-0.11620090156793594,0.16001972556114197
1781099247920311800,11.360311767578125,-0.017659293487668037,-0.13302811980247498,-0.06350801885128021
1781099247945387000,11.385386962890625,0.018116269260644913,-0.10586912930011749,-0.13171613216400146
1781099247970463700,11.410463623046875,-0.027021363377571106,-0.014904484152793884,0.004309877287596464
1781099247995539000,11.4355390625,-0.03836871683597565,0.18697667121887207,0.03473924100399017
1781099248020614000,11.46061376953125,-0.04187282174825668,0.24928143620491028,-0.047120340168476105
1781099248045689900,11.48568994140625,-0.026271767914295197,0.10356186330318451,-0.14769944548606873
1781099248070764800,11.510764892578125,-0.031007660552859306,0.0519595704972744,-0.1693141609430313
1781099248095841000,11.535841064453125,-0.04471005126833916,-0.003670166712254286,-0.0703669935464859
1781099248120916000,11.560916015625,-0.07797558605670929,-0.023113451898097992,0.024445291608572006
1781099248145991000,11.585990966796874,-0.09589318931102753,-0.04180652275681496,0.009420137852430344
1781099248171067000,11.61106689453125,-0.14606116712093353,-0.06463053077459335,-0.02095121517777443
1781099248196141800,11.636141845703126,-0.15694791078567505,-0.10771321505308151,0.04901772364974022
1781099248221217800,11.6612177734375,-0.07361344248056412,-0.08113829791545868,0.08401636779308319
1781099248246292700,11.686292724609375,-0.04305047169327736,-0.08836078643798828,0.0103352265432477
1781099248271368700,11.71136865234375,-0.021203715354204178,0.11925088614225388,-0.1489872932434082
1781099248296444000,11.73644384765625,0.05781577154994011,0.12768800556659698,-0.2770234942436218
1781099248321518800,11.761518798828124,0.10086940973997116,0.2845393419265747,-0.3515334725379944
1781099248346594800,11.7865947265625,0.11541076749563217,0.35904842615127563,-0.4308856427669525
1781099248371669800,11.811669677734375,0.12066236883401871,0.37426406145095825,-0.47089019417762756
1781099248396746000,11.83674609375,0.126629039645195,0.2055419385433197,-0.3584058880805969
1781099248421821000,11.861821044921875,-0.08417448401451111,0.09260755777359009,-0.10018520802259445
1781099248446895900,11.886895751953125,-0.25707778334617615,0.09608548879623413,0.35856324434280396
1781099248471971800,11.911971923828125,-0.1705142855644226,-0.10918822884559631,0.3880597651004791
1781099248497047000,11.937047119140624,-0.15982666611671448,-0.26637938618659973,0.26720553636550903
1781099248522122800,11.962122802734376,-0.18672175705432892,-0.2357177436351776,0.05713985860347748
1781099248547197700,11.98719775390625,-0.1841139793395996,-0.09355022013187408,0.05325643718242645
1781099248572273700,12.012273681640625,-0.2780078649520874,-0.08015337586402893,0.14568446576595306
1781099248597348900,12.037348876953125,-0.21569688618183136,-0.030186079442501068,0.2735406458377838
1781099248622423800,12.062423828125,-0.11952924728393555,-0.08572280406951904,0.25737670063972473
1781099248647499800,12.087499755859374,-0.0027709701098501682,0.06696843355894089,0.11225943267345428
1781099248672574700,12.11257470703125,0.0848257765173912,0.115385040640831,-0.0803978443145752
1781099248697651000,12.13765087890625,0.010716184973716736,0.13721460103988647,-0.10822385549545288
1781099248722726000,12.162725830078125,0.015315493568778038,0.03094465285539627,-0.028734594583511353
1781099248747801900,12.1878017578125,-0.043186478316783905,-0.04282328113913536,0.008260170929133892
1781099248772876800,12.212876708984375,-0.026250548660755157,0.0018172735581174493,0.0648185983300209
1781099248797952000,12.237951904296875,0.003839328419417143,-0.04502015933394432,0.0009135485161095858
1781099248823028000,12.263028076171874,-0.09917770326137543,-0.002284026239067316,0.06624259799718857
1781099248848103000,12.28810302734375,-0.06192895770072937,0.050933271646499634,0.02038900926709175
1781099248873178600,12.3131787109375,-0.02204977348446846,0.0501866340637207,0.04576064646244049
1781099248898253800,12.33825390625,-0.04250495508313179,-0.02500581555068493,-0.04248929023742676
1781099248923329800,12.363329833984375,0.03826884552836418,-0.0951712504029274,-0.05795067176222801
1781099248948404000,12.388404052734375,0.07352562993764877,-0.013244876638054848,-0.091206394135952
1781099248973479000,12.41347900390625,0.08511224389076233,-0.0028484277427196503,-0.05053246021270752
1781099248998555100,12.43855517578125,0.10327272117137909,-0.09588341414928436,-0.013278992846608162
1781099249023630000,12.463630126953126,0.023251714184880257,0.009855613112449646,-0.02859025076031685
1781099249048706000,12.4887060546875,0.016219088807702065,0.04435107484459877,-0.12602651119232178
1781099249073781000,12.513781005859375,0.01983230747282505,-0.0651344358921051,-0.049434445798397064
1781099249098857200,12.538857177734375,-0.03278899937868118,0.047697607427835464,0.05122942104935646
1781099249123932200,12.56393212890625,-0.01698959991335869,-0.03551917523145676,-0.015532664954662323
1781099249149007000,12.589007080078124,-0.017448874190449715,-0.13092204928398132,-0.06741863489151001
1781099249174083000,12.6140830078125,-0.029439490288496017,0.02951130084693432,-0.023578209802508354
1781099249199158300,12.639158203125,-0.05226869508624077,-0.0418122261762619,0.031520143151283264
1781099249224234000,12.66423388671875,-0.08199214935302734,-0.013241183944046497,-0.015252076089382172
1781099249249309200,12.68930908203125,-0.06989506632089615,-0.03738174960017204,-0.065153107047081
1781099249274385000,12.714385009765625,-0.10548622161149979,-0.14549358189105988,0.02243468537926674
1781099249299460000,12.739460205078124,-0.06690613925457001,-0.0580667145550251,0.038462553173303604
1781099249324536000,12.7645361328125,-0.1072382926940918,0.02766934596002102,0.040516197681427
1781099249349611000,12.789611083984376,-0.13021795451641083,0.12311753630638123,0.1110939309000969
1781099249374686000,12.81468603515625,-0.17380741238594055,-0.12352249771356583,0.06006491556763649
1781099249399762200,12.83976220703125,-0.13868285715579987,-0.011371190659701824,0.062349800020456314
1781099249424837000,12.864837158203125,-0.06466136127710342,-0.10132070630788803,0.06815919280052185
1781099249449913000,12.8899130859375,-0.09942201524972916,0.04681476950645447,0.05228566378355026
1781099249474988000,12.914988037109374,-0.11375709623098373,-0.014302302151918411,0.05976083502173424
1781099249500064300,12.940064208984374,-0.04384751617908478,0.08364849537611008,0.053011052310466766
1781099249525139200,12.96513916015625,-0.036165591329336166,-0.031444843858480453,0.11341878771781921
1781099249550214100,12.990214111328125,-0.035952579230070114,0.017825083807110786,0.07821385562419891
1781099249575290000,13.0152900390625,-0.0413789376616478,-0.17845286428928375,-0.03545771911740303
1781099249600365000,13.040364990234375,-0.04035061225295067,-0.12919563055038452,-0.06771067529916763
1781099249625441000,13.06544091796875,-0.04250520095229149,-0.044956427067518234,0.12432417273521423
1781099249650516000,13.090515869140624,-0.03590044379234314,0.010387408547103405,0.0978255644440651
1781099249675592200,13.11559228515625,-0.09066864103078842,0.12969078123569489,0.03440157696604729
1781099249700667100,13.140667236328126,-0.07202594727277756,-0.07614070922136307,-0.02442760020494461
1781099249725743000,13.1657431640625,-0.0476459339261055,-0.02521810308098793,-0.0369073748588562
1781099249750818000,13.190818115234375,-0.03760317713022232,0.114462710916996,-0.014249471947550774
1781099249775893000,13.21589306640625,-0.014031880535185337,0.029134497046470642,-0.004103127866983414
1781099249800969200,13.24096923828125,-0.03354141488671303,0.10003793239593506,0.04035001993179321
1781099249826044200,13.266044189453124,-0.045815981924533844,0.027218244969844818,0.0664910227060318
1781099249851119900,13.291119873046876,-0.06546714901924133,-0.1275089830160141,0.04030658304691315
1781099249876195000,13.316195068359375,-0.026953285560011864,-0.07483408600091934,-0.014707351103425026
1781099249901271000,13.34127099609375,-0.02308746799826622,-0.06200062111020088,0.00528577109798789
1781099249926346000,13.366345947265625,-0.049011506140232086,-0.06900237500667572,0.10784567147493362
1781099249951422500,13.39142236328125,-0.030205950140953064,0.03300323709845543,0.10395391285419464
1781099249976497400,13.416497314453125,-0.013139941729605198,0.15250034630298615,0.061496131122112274
1781099250001572600,13.441572509765624,-0.028411664068698883,0.0116806011646986,0.06367608904838562
1781099250026648600,13.466648681640624,-0.005241117440164089,-0.044730935245752335,0.13011105358600616
1781099250051723500,13.4917236328125,0.03201593458652496,0.003375990316271782,0.1038317084312439
1781099250076799500,13.516799560546875,0.02804495394229889,0.056898146867752075,0.0362766869366169
1781099250101874700,13.541874755859375,0.020008845254778862,-0.0037158578634262085,-0.009310752153396606
1781099250126950400,13.566950439453125,-0.017708681523799896,-0.05961575731635094,0.06609106063842773
1781099250152025300,13.592025390625,-0.013418949209153652,-0.024221129715442657,0.11390617489814758
1781099250177101600,13.6171015625,0.020966455340385437,0.026800507679581642,0.06531573832035065
1781099250202176500,13.642176513671876,0.003297974821180105,-0.11028749495744705,0.05992201715707779
1781099250227251500,13.66725146484375,-0.0019123211968690157,-0.1211802065372467,0.1570197194814682
1781099250252327400,13.692327392578125,0.02891724184155464,-0.06317511200904846,0.1968020647764206
1781099250277402400,13.71740234375,0.042188860476017,-0.05437830835580826,0.23902516067028046
1781099250302478600,13.742478515625,0.0814482718706131,-0.11203216761350632,0.22259680926799774
1781099250327553500,13.767553466796874,0.1069040521979332,-0.06326664984226227,0.20063631236553192
1781099250352629500,13.79262939453125,0.09585075080394745,-0.06514505296945572,0.09705039858818054
1781099250377704400,13.817704345703126,0.11946775764226913,-0.06500458717346191,-0.04060671478509903
1781099250402780400,13.842780517578126,0.07298580557107925,-0.09612077474594116,-0.057798121124506
1781099250427855600,13.867855712890625,0.018197618424892426,-0.013489696197211742,-0.008215459063649178
1781099250452931300,13.892931396484375,-0.041816502809524536,-0.025655508041381836,0.030474666506052017
1781099250478006500,13.918006591796875,-0.07102910429239273,0.09331101179122925,0.02263738587498665
1781099250503081500,13.94308154296875,-0.09484264254570007,0.18746870756149292,0.03853712975978851
1781099250528157400,13.968157470703124,-0.12087363004684448,0.16453911364078522,0.09169182181358337
1781099250553232400,13.993232421875,-0.12741151452064514,0.06708276271820068,0.07033451646566391
1781099250578308600,14.01830859375,-0.11489725112915039,-0.013537556864321232,-0.008345099166035652
1781099250603383600,14.043383544921875,-0.07084478437900543,-0.012997733429074287,0.004928434733301401
1781099250628459500,14.06845947265625,-0.0015958206495270133,0.1182735487818718,0.051714181900024414
1781099250653534500,14.093534423828125,0.031139427796006203,0.13814392685890198,-0.003117185551673174
1781099250678610700,14.118610595703124,-0.06967361271381378,0.01654033735394478,0.021944887936115265
1781099250703685600,14.143685546875,-0.0011266886722296476,0.03729598969221115,0.03316275775432587
1781099250728761300,14.16876123046875,0.03723815828561783,-0.02681790292263031,-0.00008079223334789276
1781099250753836300,14.193836181640625,0.05175481364130974,0.22370409965515137,-0.030772630125284195
1781099250778912500,14.21891259765625,0.06973600387573242,0.27615103125572205,-0.13460473716259003
1781099250803987500,14.243987548828125,0.08417259156703949,0.31461259722709656,-0.2607657015323639
1781099250829062400,14.2690625,0.0470866784453392,0.20593084394931793,-0.28590866923332214
1781099250854138600,14.294138671875,-0.03280724212527275,0.043800223618745804,-0.07107032090425491
1781099250879213600,14.319213623046876,-0.021292826160788536,-0.10948717594146729,0.13851246237754822
1781099250904289500,14.34428955078125,0.0011137704132124782,-0.060302283614873886,0.23014794290065765
1781099250929364500,14.369364501953125,-0.010301869362592697,-0.017934052273631096,0.17897237837314606
1781099250954440400,14.3944404296875,-0.00558058824390173,0.06016770750284195,0.1373157650232315
1781099250979515600,14.419515625,-0.001222713035531342,0.17496086657047272,0.006176768336445093
1781099251004591400,14.44459130859375,0.021700238808989525,0.08262614905834198,-0.03403236344456673
1781099251029666300,14.469666259765624,0.05586320906877518,-0.05336185544729233,0.031004641205072403
1781099251054742500,14.494742431640624,0.07855218648910522,-0.049715571105480194,0.00365895451977849
1781099251079817500,14.5198173828125,0.09397538751363754,0.05490614101290703,-0.06960056722164154
1781099251104893400,14.5448935546875,0.08598179370164871,0.15298496186733246,-0.0796613097190857
1781099251129968400,14.569968505859375,0.035066939890384674,0.2506586015224457,0.03588256984949112
1781099251155043300,14.595043212890625,0.014653190039098263,0.07647790014743805,0.0685964897274971
1781099251180119600,14.62011962890625,0.08789802342653275,0.11482071876525879,-0.007139385212212801
1781099251205194500,14.645194580078124,0.10142679512500763,0.05731435865163803,-0.09486396610736847
1781099251230270500,14.6702705078125,0.08539125323295593,-0.0418001264333725,0.0707017108798027
1781099251255345400,14.695345458984375,0.12337355315685272,0.0292796827852726,0.044004082679748535
1781099251280421400,14.72042138671875,0.06003934144973755,0.010110704228281975,-0.029271211475133896
1781099251305496600,14.74549658203125,0.07184413820505142,0.07688965648412704,0.009724488481879234
1781099251330572300,14.770572265625,0.09452562034130096,0.012604604475200176,0.07898891717195511
1781099251355647500,14.7956474609375,0.0711638480424881,0.10333472490310669,0.06574442982673645
1781099251380723500,14.820723388671874,0.13229122757911682,0.20156562328338623,-0.012215719558298588
1781099251405798400,14.84579833984375,0.04277291148900986,0.010684769600629807,-0.0315387062728405
1781099251430874400,14.870874267578126,0.10287090390920639,0.150801882147789,-0.044513314962387085
1781099251455949600,14.895949462890625,0.10451706498861313,0.010696866549551487,-0.0734887421131134
1781099251481025500,14.921025634765625,0.07971353828907013,0.1554984152317047,-0.04753528907895088
1781099251506100500,14.9461005859375,0.08929503709077835,0.008811995387077332,-0.08086717128753662
1781099251531176400,14.971176513671875,0.050736360251903534,0.07134731858968735,0.03695174679160118
1781099251556251600,14.996251708984374,0.07991904020309448,0.05801963806152344,0.004939225036650896
1781099251581326600,15.02132666015625,0.031683750450611115,0.10848285257816315,-0.13873228430747986
1781099251606402300,15.04640234375,0.03224970027804375,0.05254174396395683,-0.08619771152734756
1781099251631477200,15.071477294921875,0.05243805795907974,-0.043715354055166245,0.015679936856031418
1781099251656553500,15.096553466796875,0.0734475627541542,0.10083048790693283,-0.06793791055679321
1781099251681628400,15.12162841796875,0.01714714989066124,0.172675222158432,-0.054143380373716354
1781099251706704400,15.146704345703125,0.1086830124258995,0.09153035283088684,0.04404401034116745
1781099251731779600,15.171779541015624,-0.009714022278785706,0.021778585389256477,-0.07453678548336029
1781099251756855600,15.19685546875,0.035882432013750076,0.050029851496219635,-0.11093398928642273
1781099251781930500,15.221930419921875,0.10065294057130814,0.07632000744342804,-0.027433454990386963
1781099251807006500,15.24700634765625,0.03386635705828667,0.00918388832360506,0.15461798012256622
1781099251832081700,15.27208154296875,0.05917668715119362,0.24786414206027985,0.06283973157405853
1781099251857157400,15.297157470703125,0.07328161597251892,-0.00113506312482059,-0.050030309706926346
1781099251882232300,15.322232421875,0.008531677536666393,0.04831154644489288,0.0313655249774456
1781099251907308500,15.34730859375,-0.003161346074193716,-0.020184997469186783,0.0866062343120575
1781099251932383500,15.372383544921876,0.03320612758398056,0.0706813782453537,0.04266316816210747
1781099251957459700,15.397459716796876,0.006620596628636122,0.1674908548593521,0.07600012421607971
1781099251982534700,15.42253466796875,0.03832410275936127,0.07410760968923569,0.05569235607981682
1781099252007610600,15.447610595703125,0.02493959106504917,0.19200974702835083,0.00628379313275218
1781099252032685600,15.472685546875,0.0034932726994156837,0.09970047324895859,-0.049296002835035324
1781099252057761800,15.49776171875,0.044804640114307404,0.14808319509029388,-0.0312295351177454
1781099252082836700,15.522836669921874,0.02646339125931263,0.20345495641231537,0.007157500833272934
1781099252107912400,15.547912353515626,0.03632761910557747,0.10068002343177795,-0.0692087709903717
1781099252132987600,15.572987548828126,0.04722436144948006,0.2128026783466339,0.011843893676996231
1781099252158062600,15.5980625,-0.053863104432821274,0.13992732763290405,0.09199786931276321
1781099252183138600,15.623138671875,-0.003847021609544754,0.11307483166456223,-0.04432717710733414
1781099252208213500,15.648213623046875,0.08247902244329453,0.2078482061624527,-0.06887626647949219
1781099252233289700,15.673289794921875,0.03309333324432373,0.09343568980693817,0.16036970913410187
1781099252258364700,15.69836474609375,0.049218714237213135,0.12219588458538055,0.0811893492937088
1781099252283440600,15.723440673828126,0.12566256523132324,0.2844543159008026,0.019835369661450386
1781099252308515600,15.748515625,0.168423131108284,0.10876704752445221,0.0846192017197609
1781099252333591800,15.773591796875,0.035613302141427994,-0.026976818218827248,-0.01137695275247097
1781099252358666800,15.798666748046875,0.08718778938055038,0.16904360055923462,-0.04778001084923744
1781099252383742500,15.823742431640625,0.12651285529136658,0.030380554497241974,0.05079425871372223
1781099252408817400,15.8488173828125,0.07633214443922043,0.07686310261487961,0.20446152985095978
1781099252433893600,15.8738935546875,0.13178828358650208,0.3303816318511963,-0.04433627799153328
1781099252458968600,15.898968505859376,0.13693083822727203,0.15906251966953278,-0.17967890202999115
1781099252484044500,15.92404443359375,0.11379469186067581,-0.0730060562491417,-0.10547786206007004
1781099252509119500,15.949119384765625,0.16609521210193634,0.04369749873876572,-0.05496140941977501
1781099252534195700,15.97419580078125,0.1909846067428589,0.20128238201141357,-0.15137046575546265
1781099252559270700,15.999270751953125,0.15907564759254456,0.06446901708841324,-0.1867138296365738
1781099252584346600,16.0243466796875,0.13515958189964294,-0.012587117962539196,-0.14439871907234192
1781099252609421800,16.049421875,0.11780523508787155,0.11752580106258392,-0.041893504559993744
1781099252634497500,16.07449755859375,0.07914377003908157,0.149479478597641,-0.022467127069830894
1781099252659572500,16.099572509765625,0.08209061622619629,-0.0015017794212326407,-0.07287802547216415
1781099252684648400,16.1246484375,0.12239690870046616,-0.03697436302900314,-0.14404474198818207
1781099252709723600,16.1497236328125,0.11578965932130814,0.052871447056531906,-0.10086393356323242
1781099252734799600,16.174799560546877,0.1134762093424797,0.08064653724431992,-0.01596396043896675
1781099252759874600,16.19987451171875,0.09235464781522751,0.0075232842937111855,0.002865626011043787
1781099252784950800,16.22495068359375,0.08634945005178452,0.033745650202035904,0.04843498021364212
1781099252810025700,16.250025634765624,0.12738512456417084,0.08064276725053787,0.01899246871471405
1781099252835101700,16.275101806640624,0.06498423963785172,0.1349869668483734,-0.06798534840345383
1781099252860176600,16.3001767578125,0.07090288400650024,0.015731001272797585,-0.07991284877061844
1781099252885252600,16.325252685546875,0.019806908443570137,-0.07906851172447205,-0.06016766279935837
1781099252910327600,16.35032763671875,0.0790725126862526,0.11301954835653305,0.04575333371758461
1781099252935403500,16.375403564453126,0.13523754477500916,0.19419173896312714,0.018251145258545876
1781099252960478200,16.400478271484374,0.06554238498210907,0.2050289809703827,0.005493566393852234
1781099252985554200,16.42555419921875,0.07017314434051514,0.15683409571647644,-0.11891967803239822
1781099253010629000,16.450629150390625,0.035696983337402344,-0.09451130777597427,-0.043589696288108826
1781099253035705300,16.475705322265625,0.031155407428741455,0.021335622295737267,0.10939921438694
1781099253060780300,16.5007802734375,0.11891361325979233,0.06704699993133545,-0.0019285078160464764
1781099253085856300,16.525856201171877,0.11871396750211716,0.15685217082500458,-0.11849287152290344
1781099253110931200,16.55093115234375,0.09899713099002838,0.17971251904964447,-0.13434569537639618
1781099253136006100,16.576006103515624,0.07708810269832611,0.07433336973190308,-0.02706398442387581
1781099253161082400,16.601082275390624,0.09449313580989838,0.0998268872499466,-0.03110143542289734
1781099253186157300,16.6261572265625,0.09979945421218872,0.06204211339354515,-0.07714324444532394
1781099253211233000,16.65123291015625,0.11487433314323425,0.11649463325738907,-0.003133110236376524
1781099253236308200,16.67630810546875,0.16412819921970367,0.13620498776435852,-0.045876819640398026
1781099253261384200,16.70138427734375,0.14841416478157043,0.07181035727262497,-0.08744166046380997
1781099253286459100,16.726459228515626,0.1209355965256691,0.005131507758051157,-0.07117802649736404
1781099253311535000,16.75153515625,0.13922666013240814,0.0539393313229084,0.007170486263930798
1781099253336610300,16.7766103515625,0.13234132528305054,0.060343969613313675,-0.0905613973736763
1781099253361686300,16.801686279296874,0.07221978902816772,0.1480976790189743,-0.030627116560935974
1781099253386761200,16.82676123046875,0.12241344153881073,-0.04968620091676712,-0.09537090361118317
1781099253411837200,16.851837158203125,0.07356349378824234,0.08542466908693314,-0.015086580067873001
1781099253436912400,16.876912353515625,0.17660675942897797,0.13030695915222168,-0.06581690907478333
1781099253461988000,16.901988037109376,0.12183956056833267,0.028320221230387688,-0.12883907556533813
1781099253487063300,16.927063232421876,0.2096559703350067,0.041681304574012756,-0.18619824945926666
1781099253512139300,16.95213916015625,0.07618523389101028,-0.09885619580745697,-0.19882677495479584
1781099253537214200,16.977214111328124,0.08231835067272186,0.06579069793224335,0.04148420691490173
1781099253562290200,17.002290283203124,0.11046100407838821,0.17156502604484558,-0.06556184589862823
1781099253587365000,17.027365234375,0.03595540672540665,0.14120478928089142,-0.04041329026222229
1781099253612441300,17.05244140625,0.08249189704656601,0.1906195431947708,-0.033170659095048904
1781099253637516300,17.077516357421874,0.10242749005556107,0.05944960564374924,0.02087048627436161
1781099253662592300,17.10259228515625,0.13287200033664703,0.1457262486219406,-0.031552985310554504
1781099253687667200,17.127667236328126,0.19303575158119202,-0.04377216100692749,-0.10723739862442017
1781099253712743200,17.1527431640625,0.13469462096691132,-0.1105363517999649,0.05640873312950134
1781099253737818400,17.177818359375,0.1585022360086441,-0.21210090816020966,0.04882092401385307
1781099253762894000,17.20289404296875,0.2106712907552719,-0.24350281059741974,0.04480043798685074
1781099253787969000,17.227968994140625,0.1855551302433014,-0.15854933857917786,0.07440689951181412
1781099253813045200,17.253045166015625,0.14294666051864624,-0.0639357939362526,0.0689934566617012
1781099253838120200,17.2781201171875,0.20283259451389313,-0.08395062386989594,-0.006668024696409702
1781099253863196200,17.303196044921876,0.22295239567756653,-0.07930854707956314,-0.04456999525427818
1781099253888271000,17.32827099609375,0.2184837907552719,0.031229570508003235,-0.13663795590400696
1781099253913347300,17.353347412109375,0.22355897724628448,-0.009678788483142853,-0.22462265193462372
1781099253938422300,17.37842236328125,0.20723176002502441,0.026809705421328545,-0.20915870368480682
1781099253963498000,17.403498046875,0.1418943852186203,0.09614247828722,-0.12441201508045197
1781099253988573000,17.428572998046874,0.05151936411857605,-0.07533906400203705,-0.100316122174263
1781099254013649000,17.45364892578125,0.015594647265970707,0.16617947816848755,-0.11984853446483612
1781099254038723800,17.478723876953126,-0.07364843785762787,0.022277850657701492,-0.10724247246980667
1781099254063799800,17.5037998046875,-0.09861566126346588,0.19120246171951294,0.07705561816692352
1781099254088874800,17.528874755859373,0.005689228884875774,0.03265656158328056,0.0630546361207962
1781099254113951000,17.553950927734373,0.032809704542160034,0.20242276787757874,-0.08033481240272522
1781099254139026000,17.57902587890625,0.053475894033908844,0.018074387684464455,-0.08892107009887695
1781099254164102000,17.604101806640625,0.06471949070692062,0.08349685370922089,-0.01946178451180458
1781099254189176800,17.6291767578125,0.11025037616491318,0.16821207106113434,0.00856302585452795
1781099254214253000,17.654253173828124,0.05893217399716377,0.013719974085688591,0.04488842189311981
1781099254239328800,17.679328857421876,0.12120949476957321,0.22614046931266785,-0.053339529782533646
1781099254264403700,17.70440380859375,0.16796113550662994,-0.021540138870477676,-0.18732121586799622
1781099254289480000,17.72947998046875,0.08041208237409592,0.061898455023765564,-0.06048685684800148
1781099254314555000,17.754554931640627,0.16893762350082397,-0.1139615997672081,0.08489132672548294
1781099254339630800,17.779630859375,0.16104650497436523,0.04819492995738983,0.052931610494852066
1781099254364705800,17.804705810546874,0.12634451687335968,0.15405866503715515,-0.15822266042232513
1781099254389782000,17.829781982421874,0.02606978267431259,0.0261650662869215,-0.17848245799541473
1781099254414857000,17.85485693359375,0.12121449410915375,0.047900885343551636,0.057870298624038696
1781099254439933000,17.879932861328125,0.15951628983020782,0.22100208699703217,0.01913774013519287
1781099254465007900,17.9050078125,0.10671926289796829,0.4411884546279907,-0.34846463799476624
1781099254490083800,17.930083740234377,0.14078117907047272,0.19473163783550262,-0.5660213828086853
1781099254515158800,17.95515869140625,0.07037442177534103,0.003921707160770893,-0.34691426157951355
1781099254540234800,17.98023486328125,0.0006020857254043221,0.09351455420255661,0.11466994136571884
1781099254565309700,18.005309814453124,0.13455000519752502,0.10017268359661102,0.2395053207874298
1781099254590386000,18.030385986328124,0.07789036631584167,0.12916913628578186,0.17359331250190735
1781099254615460900,18.0554609375,-0.08102317154407501,0.09251472353935242,-0.005430835764855146
1781099254640536800,18.080536865234375,-0.010371676646173,-0.23634396493434906,-0.03757040947675705
1781099254665612000,18.105612060546875,0.16130095720291138,0.028962263837456703,0.007398858666419983
1781099254690688000,18.13068798828125,0.04546250402927399,0.016739951446652412,0.0786549299955368
1781099254715763000,18.155762939453126,0.07146383821964264,0.17208677530288696,0.1409359574317932
1781099254740838700,18.180838623046874,0.2505633234977722,0.20985926687717438,-0.042960844933986664
1781099254765913900,18.205913818359374,0.19863563776016235,0.06973503530025482,-0.252139687538147
1781099254790989800,18.23098974609375,0.13726572692394257,0.03890198469161987,-0.21068759262561798
1781099254816064800,18.256064697265625,0.2357451319694519,-0.024426160380244255,-0.07839164137840271
1781099254841141000,18.28114111328125,0.03379383310675621,0.19030824303627014,0.03356359153985977
1781099254866216000,18.3062158203125,0.10320188105106354,0.14990675449371338,-0.027376264333724976
1781099254891292000,18.3312919921875,0.09326287358999252,0.013435347937047482,-0.09590507298707962
1781099254916366800,18.356366943359376,0.03388793021440506,0.05662159249186516,-0.11385506391525269
1781099254941443000,18.381443115234376,0.06271636486053467,0.024364691227674484,-0.048043347895145416
1781099254966518300,18.406518310546875,0.11477728188037872,0.09323643893003464,0.06857661157846451
1781099254991594000,18.431593994140623,0.1635909527540207,0.2897951006889343,-0.07374904304742813
1781099255016669000,18.4566689453125,0.12235243618488312,0.07614560425281525,-0.04908176511526108
1781099255041745200,18.4817451171875,0.18020111322402954,0.07434961199760437,-0.010802793316543102
1781099255066820000,18.506820068359374,0.12307373434305191,0.008151261135935783,-0.02410120517015457
1781099255091896000,18.53189599609375,0.04276597499847412,0.16912579536437988,-0.006008404307067394
1781099255116972000,18.556971923828126,0.07581804692745209,0.05477079749107361,0.16281110048294067
1781099255142047200,18.582047119140626,0.15101316571235657,0.18684491515159607,0.020375097170472145
1781099255167123200,18.607123291015625,0.07877524942159653,0.0836532860994339,-0.24579395353794098
1781099255192198100,18.6321982421875,0.1196235790848732,-0.008953922428190708,-0.25634992122650146
1781099255217274000,18.657274169921877,0.1720314472913742,0.03670191392302513,0.015505371615290642
1781099255242349000,18.68234912109375,0.21964922547340393,0.2575134336948395,0.001812079455703497
1781099255267425000,18.707425048828124,0.10932599753141403,0.17302413284778595,-0.06416098028421402
1781099255292500000,18.7325,0.13051559031009674,0.08595386892557144,-0.12061132490634918
1781099255317576200,18.757576171875,0.12078386545181274,0.059188906103372574,-0.099761463701725
1781099255342651100,18.782651123046875,0.10343310981988907,0.03088117204606533,-0.09521891176700592
1781099255367727000,18.80772705078125,0.11592581123113632,0.042513567954301834,-0.08769244700670242
1781099255392802000,18.832802001953127,0.12445849180221558,0.0780147984623909,-0.012385540641844273
1781099255417878300,18.857878173828126,0.1347925066947937,0.1845972090959549,-0.055456943809986115
1781099255442953200,18.882953125,0.13609331846237183,-0.0006059820880182087,-0.0236525759100914
1781099255468029000,18.90802880859375,0.15174704790115356,0.04461361840367317,-0.2261359691619873
1781099255493103900,18.933103759765626,0.1018599420785904,0.03134125843644142,-0.23939022421836853
1781099255518180000,18.95818017578125,0.08266524225473404,-0.021410932764410973,-0.08604909479618073
1781099255543255000,18.983255126953125,0.12233873456716537,0.12014760822057724,0.11360928416252136
1781099255568331000,19.0083310546875,0.15385869145393372,0.1665802299976349,-0.08272390067577362
1781099255593406200,19.03340625,0.02627255767583847,0.09125669300556183,-0.20907491445541382
1781099255618482200,19.058482177734376,0.05254408344626427,-0.0693555623292923,-0.1675862967967987
1781099255643558100,19.08355810546875,0.049186281859874725,0.09279967844486237,0.04184221103787422
1781099255668633000,19.108633056640624,0.08156183362007141,0.16858668625354767,0.052656788378953934
1781099255693709000,19.133708984375,0.10573138296604156,0.12015361338853836,-0.02109382301568985
1781099255718784000,19.158783935546875,0.10737866908311844,0.055389486253261566,-0.09320280700922012
1781099255743860000,19.18385986328125,0.1261100023984909,-0.08327258378267288,-0.26423180103302
1781099255768935200,19.20893505859375,0.07766604423522949,-0.01007560733705759,-0.07708720862865448
1781099255794011100,19.23401123046875,0.14065995812416077,0.052342869341373444,0.02825520932674408
1781099255819086000,19.259086181640626,0.1537262201309204,0.23523664474487305,0.013444866985082626
1781099255844162000,19.284162109375,0.1302827149629593,0.1269206702709198,-0.21728341281414032
1781099255869237200,19.3092373046875,0.15294350683689117,-0.007265036925673485,-0.23008663952350616
1781099255894313200,19.334313232421874,0.10187806934118271,-0.05417536944150925,0.038463473320007324
1781099255919388200,19.35938818359375,0.17116139829158783,0.17005857825279236,-0.0360710509121418
1781099255944464000,19.3844638671875,0.08111605048179626,0.0649377629160881,-0.20988744497299194
1781099255969539000,19.4095390625,0.05212591588497162,-0.008490345440804958,-0.06039360165596008
1781099255994615000,19.434614990234376,0.15374606847763062,0.11333603411912918,0.10331815481185913
1781099256019690000,19.45968994140625,0.18437978625297546,0.06539788097143173,-0.036014772951602936
1781099256044766200,19.48476611328125,0.0965634435415268,0.16031500697135925,-0.16076433658599854
1781099256069841200,19.509841064453123,0.038176070898771286,-0.11397168785333633,-0.11151053011417389
1781099256094917000,19.534917236328123,0.16000545024871826,0.13548512756824493,0.10054169595241547
1781099256119993000,19.5599931640625,0.15399211645126343,0.1795603483915329,-0.03382349759340286
1781099256145068300,19.585068359375,0.03347953036427498,0.1804167926311493,-0.01715240254998207
1781099256170144000,19.61014404296875,0.13932600617408752,0.1484534591436386,-0.15871597826480865
1781099256195219000,19.635218994140626,0.10352539271116257,0.07228805124759674,-0.16646815836429596
1781099256220295200,19.660295166015626,0.024026120081543922,0.1146458312869072,-0.07479946315288544
1781099256245370000,19.6853701171875,0.11159873753786087,0.039972081780433655,0.05626663193106651
1781099256270446000,19.710446044921873,0.18749608099460602,0.2328779101371765,-0.1689239889383316
1781099256295521000,19.73552099609375,0.056202203035354614,0.16608279943466187,-0.21748195588588715
1781099256320597200,19.76059716796875,0.11833367496728897,-0.04420170560479164,0.05175073817372322
1781099256345672200,19.785672119140624,0.22628653049468994,0.013309759087860584,0.06361515820026398
1781099256370748200,19.810748046875,0.15482527017593384,0.09520794451236725,-0.06215938925743103
1781099256395823000,19.835822998046876,0.18784312903881073,0.04599947854876518,-0.31732141971588135
1781099256420899000,19.860899169921876,0.20529140532016754,-0.08972173929214478,-0.12144184857606888
1781099256445974000,19.88597412109375,0.14913563430309296,-0.013877877965569496,-0.054687678813934326
1781099256471050000,19.911050048828123,0.15347351133823395,0.17911222577095032,0.07839751243591309
1781099256496125000,19.936125,0.09998083114624023,0.12753629684448242,0.04363241791725159
1781099256521201200,19.961201171875,0.15906360745429993,0.13620245456695557,-0.2178121954202652
1781099256546277000,19.986277099609374,0.00703105004504323,-0.0456484779715538,-0.27249768376350403
1781099256571352000,20.01135205078125,0.016573969274759293,-0.19614996016025543,0.008003721944987774
1781099256596428000,20.036427978515626,0.19687576591968536,0.1448862999677658,-0.02784859761595726
1781099256621503200,20.061503173828125,0.07712984085083008,0.21219205856323242,-0.2244429737329483
1781099256646579000,20.086578857421873,0.07729031145572662,0.1462089866399765,-0.22558613121509552
1781099256671654000,20.11165380859375,0.1675422489643097,0.04759955406188965,-0.10188352316617966
1781099256696730000,20.136730224609376,0.07108021527528763,0.026709625497460365,-0.07519810646772385
1781099256721805000,20.16180517578125,0.10690039396286011,0.19140934944152832,0.03173251077532768
1781099256746881000,20.186881103515624,0.19477543234825134,0.05293180048465729,-0.00541245611384511
1781099256771956000,20.2119560546875,0.15559718012809753,0.02125723287463188,-0.18444205820560455
1781099256797032200,20.2370322265625,0.10623887181282043,-0.08851591497659683,-0.20263820886611938
1781099256822107100,20.262107177734375,0.1221935972571373,-0.14753350615501404,0.009100688621401787
1781099256847183000,20.28718310546875,0.1592823714017868,0.23245297372341156,0.16495153307914734
1781099256872258300,20.31225830078125,0.1474996656179428,0.149885892868042,-0.034940898418426514
1781099256897334000,20.337333984375,0.09553132951259613,0.10531356930732727,-0.13914845883846283
1781099256922410000,20.362409912109374,0.07186093926429749,-0.052124787122011185,-0.12218829244375229
1781099256947485000,20.38748486328125,0.05366871505975723,-0.013251773081719875,-0.0054152775555849075
1781099256972561400,20.4125615234375,0.04026327654719353,0.2235291600227356,0.06317056715488434
1781099256997636400,20.43763623046875,0.05276067554950714,0.08932085335254669,0.12125138938426971
1781099257022712300,20.46271240234375,0.12045540660619736,0.1461399495601654,0.022982221096754074
1781099257047787500,20.48778759765625,0.1289026290178299,-0.057407598942518234,-0.24742722511291504
1781099257072863200,20.51286328125,0.1134554073214531,-0.06665819883346558,-0.20942746102809906
1781099257097938200,20.537938232421876,0.20900048315525055,-0.02478196658194065,0.00911862961947918
1781099257123014400,20.563014404296876,0.2558841109275818,0.15598565340042114,-0.07449313253164291
1781099257148089300,20.58808935546875,0.2549629509449005,0.3395099937915802,-0.2700008749961853
1781099257173165300,20.613165283203124,0.19137953221797943,-0.050361745059490204,-0.27932584285736084
1781099257198240300,20.638240234375,0.14607639610767365,0.11022365838289261,-0.003938073758035898
1781099257223316500,20.66331640625,0.18107514083385468,0.08603966236114502,-0.02076147496700287
1781099257248392400,20.688392333984375,0.12738797068595886,0.06953281909227371,-0.11392519623041153
1781099257273467400,20.71346728515625,0.13337941467761993,-0.1161869615316391,-0.16478270292282104
1781099257298543400,20.73854345703125,0.13968999683856964,-0.06533044576644897,-0.08629168570041656
1781099257323618300,20.763618408203126,0.18310727179050446,-0.0117061547935009,-0.05416296795010567
1781099257348694300,20.7886943359375,0.1288999319076538,-0.05906585603952408,0.00550009636208415
1781099257373769200,20.813769287109373,0.21165195107460022,0.009007793851196766,0.04189629852771759
1781099257398845400,20.838845458984373,0.17424891889095306,-0.12074540555477142,-0.07090108841657639
1781099257423920400,20.86392041015625,0.17858795821666718,-0.23437437415122986,-0.14838500320911407
1781099257448996400,20.888996337890624,0.19533701241016388,-0.047385960817337036,-0.1551351398229599
1781099257474071300,20.9140712890625,0.1478247046470642,0.13318322598934174,-0.06537778675556183
1781099257499147500,20.9391474609375,0.13432180881500244,0.20405378937721252,-0.12715791165828705
1781099257524222500,20.964222412109375,0.07578384131193161,0.2180226892232895,-0.14100801944732666
1781099257549298200,20.989298095703123,0.0492217130959034,0.06791285425424576,-0.16091997921466827
1781099257574374400,21.01437451171875,0.05834992974996567,0.1671208143234253,-0.10749059915542603
1781099257599449300,21.039449462890627,0.05306108668446541,-0.01710769534111023,-0.11651674658060074
1781099257624525300,21.064525390625,0.07045932114124298,0.14680062234401703,-0.09320646524429321
1781099257649600300,21.089600341796874,0.11173879355192184,0.030537864193320274,-0.06670434027910233
1781099257674676500,21.114676513671874,0.11422228068113327,0.11038567125797272,-0.008410324342548847
1781099257699751400,21.13975146484375,0.11992916464805603,0.0039716134779155254,-0.08617676049470901
1781099257724827400,21.164827392578125,0.1556682288646698,-0.04618220776319504,-0.24545884132385254
1781099257749902300,21.18990234375,0.09754742681980133,0.03555183857679367,-0.12851488590240479
1781099257774978300,21.214978271484377,0.1673191785812378,-0.02070082537829876,-0.0351446233689785
1781099257800053200,21.24005322265625,0.17416787147521973,0.11452319473028183,-0.04092409834265709
1781099257825129200,21.265129150390624,0.11026201397180557,0.008271968923509121,-0.26323825120925903
1781099257850204200,21.2902041015625,0.07995627075433731,0.020197834819555283,-0.1417216807603836
1781099257875280400,21.3152802734375,0.07335188239812851,-0.17295002937316895,-0.013929681852459908
1781099257900356400,21.3403564453125,0.05390850454568863,0.10530920326709747,0.1007642149925232
1781099257925431300,21.365431396484375,0.11081675440073013,0.09363646805286407,-0.09661252051591873
1781099257950507500,21.390507568359375,0.08674156665802002,0.09936334192752838,-0.2665940523147583
1781099257975582200,21.415582275390626,0.06863170117139816,-0.042134154587984085,-0.18969060480594635
1781099258000658200,21.440658203125,0.09228457510471344,0.15026608109474182,-0.04177991300821304
1781099258025733000,21.465733154296874,0.15828578174114227,0.12400452792644501,-0.07466138899326324
1781099258050809000,21.49080908203125,0.13505919277668,0.07891104370355606,-0.3300495743751526
1781099258075884000,21.515884033203125,0.11119063198566437,0.06756968051195145,-0.30191296339035034
1781099258100960300,21.540960205078125,0.10276111960411072,0.06453735381364822,-0.049283210188150406
1781099258126035200,21.56603515625,0.0874224454164505,0.08708898723125458,0.09748715907335281
1781099258151111200,21.591111083984377,0.17626993358135223,0.058147232979536057,-0.1058410108089447
1781099258176187400,21.6161875,0.07232025265693665,-0.17536260187625885,-0.23878638446331024
1781099258201262300,21.641262451171876,0.14349603652954102,-0.08062463253736496,-0.13240154087543488
1781099258226338000,21.666338134765624,0.13584545254707336,-0.27095210552215576,0.014935607090592384
1781099258251413000,21.6914130859375,0.18223980069160461,-0.028622597455978394,-0.05197181552648544
1781099258276489200,21.7164892578125,0.157255157828331,-0.15056061744689941,-0.29426512122154236
1781099258301564200,21.741564208984375,0.10408153384923935,-0.05044156312942505,-0.2943110764026642
1781099258326640000,21.76664013671875,0.13266976177692413,-0.14496342837810516,-0.14028844237327576
1781099258351715300,21.79171533203125,0.1663299798965454,-0.03359736502170563,-0.13386008143424988
1781099258376791300,21.816791259765626,0.11535131931304932,-0.10609954595565796,-0.24324403703212738
1781099258401866200,21.8418662109375,0.12000645697116852,-0.07684645801782608,-0.3136831223964691
1781099258426942200,21.866942138671874,0.10218313336372375,-0.0725599154829979,-0.15061521530151367
1781099258452018200,21.89201806640625,0.12094798684120178,0.0263738464564085,-0.013011339120566845
1781099258477093000,21.917093017578125,0.14570237696170807,-0.09713297337293625,-0.004722169134765863
1781099258502169000,21.942169189453125,0.1521967202425003,-0.1359257847070694,-0.16140028834342957
1781099258527244000,21.967244140625,0.041905008256435394,-0.3337170481681824,-0.26954787969589233
1781099258552320300,21.9923203125,0.05511350929737091,-0.10681497305631638,-0.14258427917957306
1781099258577395200,22.017395263671876,0.03395657613873482,-0.1001897007226944,0.0816650390625
1781099258602471200,22.04247119140625,0.11045622080564499,0.13395333290100098,0.04291640222072601
1781099258627546400,22.06754638671875,0.08026758581399918,-0.041054509580135345,-0.16923139989376068
1781099258652622300,22.092622314453124,0.025643356144428253,-0.050913214683532715,-0.21039438247680664
1781099258677697300,22.117697265625,0.10015127062797546,-0.26045775413513184,-0.1635575145483017
1781099258702773000,22.14277294921875,0.03856155276298523,-0.169803649187088,0.0030164311174303293
1781099258727849200,22.16784912109375,0.11568668484687805,0.08998674899339676,-0.06472458690404892
1781099258752924200,22.192924072265626,0.07399455457925797,-0.0076111238449811935,-0.017129933461546898
1781099258778000100,22.218000244140626,0.0632711872458458,0.002497052773833275,0.010066911578178406
1781099258803075300,22.243075439453126,0.06013151630759239,-0.1004633978009224,0.03424058482050896
1781099258828151300,22.2681513671875,0.11853592097759247,0.020563187077641487,-0.0753391683101654
1781099258853226200,22.293226318359373,0.06447837501764297,-0.0702250599861145,-0.15787899494171143
1781099258878302200,22.31830224609375,-0.005495584569871426,-0.13208994269371033,-0.07499097287654877
1781099258903377400,22.34337744140625,0.031850416213274,0.023386355489492416,0.06356582045555115
1781099258928453000,22.368453125,0.054937709122896194,0.08365373313426971,0.10033325850963593
1781099258953528000,22.393528076171876,-0.0030203908681869507,0.15891340374946594,-0.002408314496278763
1781099258978604800,22.418604736328124,0.007470845244824886,-0.04550681635737419,-0.053729068487882614
1781099259003680800,22.4436806640625,0.07693784683942795,0.007780312094837427,-0.08851146697998047
1781099259028755700,22.468755615234375,0.04478544741868973,-0.0550370067358017,-0.14449571073055267
1781099259053832000,22.49383203125,0.06218106672167778,0.0322539322078228,-0.07452534884214401
1781099259078907000,22.518906982421875,0.09836146980524063,0.10456395894289017,0.046581193804740906
1781099259103982600,22.543982666015626,0.1168714240193367,0.058476049453020096,0.03590341657400131
1781099259129057500,22.5690576171875,0.1256115883588791,0.0010132137686014175,-0.13198257982730865
1781099259154133800,22.5941337890625,0.09243648499250412,-0.1926039457321167,-0.2063131332397461
1781099259179208700,22.619208740234374,0.08078999817371368,-0.017727192491292953,-0.08597387373447418
1781099259204284700,22.64428466796875,0.06757456809282303,-0.02026894874870777,0.09169436246156693
1781099259229361000,22.66936083984375,0.10055861622095108,0.12116754055023193,0.09236494451761246
1781099259254435800,22.694435791015625,0.13670608401298523,-0.015881843864917755,-0.1465713530778885
1781099259279511800,22.71951171875,0.058247894048690796,-0.1322668343782425,-0.23841141164302826
1781099259304586800,22.744586669921876,0.07446255534887314,-0.07340740412473679,-0.10457978397607803
1781099259329662700,22.769662841796876,0.05501726269721985,-0.017671799287199974,0.1322236955165863
1781099259354737700,22.794737548828124,0.09668426960706711,0.1083918884396553,0.11551631987094879
1781099259379813600,22.819813720703124,0.10639742016792297,0.056288983672857285,-0.1091795265674591
1781099259404888600,22.844888671875,0.05232350528240204,-0.0365128256380558,-0.15392360091209412
1781099259429964800,22.86996484375,0.048447348177433014,-0.14494958519935608,0.017521757632493973
1781099259455039700,22.895039794921875,0.08198036253452301,-0.10277830809354782,0.11540819704532623
1781099259480115700,22.92011572265625,0.11066198348999023,0.05748704448342323,-0.05100303515791893
1781099259505191700,22.945191650390626,0.03508039936423302,0.059869442135095596,-0.13499672710895538
1781099259530267000,22.970266845703126,0.03837442025542259,0.04963934049010277,-0.035649120807647705
1781099259555342600,22.995342529296874,0.03582208231091499,-0.03769579529762268,0.1008717343211174
1781099259580417500,23.02041748046875,0.06285588443279266,0.15793955326080322,0.03158912435173988
1781099259605493800,23.04549365234375,0.010704046115279198,0.02755502425134182,-0.12482894957065582
1781099259630568700,23.070568603515625,0.04497205838561058,0.05857047438621521,-0.11337223649024963
1781099259655644700,23.095644775390625,0.0422554537653923,-0.030980514362454414,-0.0283659640699625
1781099259680719600,23.1207197265625,0.07298285514116287,0.1937015950679779,-0.09123557060956955
1781099259705795800,23.1457958984375,0.07655836641788483,0.21941733360290527,-0.17351959645748138
1781099259730871600,23.17087158203125,0.04964650794863701,0.2670615017414093,-0.1433681845664978
1781099259755946800,23.19594677734375,0.08477496355772018,0.15139645338058472,-0.0947907567024231
1781099259781022700,23.221022705078123,0.05718854069709778,0.0009181318455375731,-0.01774662174284458
1781099259806097700,23.24609765625,0.03340362384915352,-0.11176090687513351,-0.05630624294281006
1781099259831173600,23.271173583984375,0.028494596481323242,-0.18860523402690887,-0.06065436452627182
1781099259856248600,23.29624853515625,0.023116301745176315,-0.05986529588699341,-0.05825893580913544
1781099259881324800,23.32132470703125,-0.04292288050055504,-0.1046900525689125,0.027790503576397896
1781099259906399700,23.346399658203126,0.05724578723311424,0.004710406064987183,-0.020862242206931114
1781099259931475700,23.371475830078126,0.09935925155878067,-0.12675555050373077,-0.18628734350204468
1781099259956551700,23.3965517578125,0.0600559338927269,-0.2276783287525177,-0.20418231189250946
1781099259981625900,23.4216259765625,0.12007948756217957,-0.2204265594482422,-0.180701345205307
1781099260006701800,23.446701904296877,0.15228746831417084,-0.18087641894817352,-0.22668930888175964
1781099260031777000,23.471777099609376,0.11141200363636017,-0.06360425055027008,-0.3107346296310425
1781099260056852700,23.496852783203124,0.01399158500134945,-0.18153423070907593,-0.2441868782043457
1781099260081927700,23.521927734375,0.024326810613274574,-0.1291479468345642,-0.186433807015419
1781099260107004000,23.54700390625,-0.02025863155722618,-0.21433641016483307,-0.18120618164539337
1781099260132078800,23.572078857421875,-0.013988086953759193,-0.16782264411449432,-0.13817626237869263
1781099260157154800,23.59715478515625,0.053786832839250565,-0.300812691450119,-0.16480404138565063
1781099260182229800,23.622229736328126,0.0033918044064193964,-0.31486836075782776,-0.22247909009456635
1781099260207306000,23.647305908203126,0.03683728724718094,-0.2931884825229645,-0.27082324028015137
1781099260232381700,23.672381591796874,0.03283780440688133,-0.5129426717758179,-0.17912976443767548
1781099260257457000,23.697456787109374,0.03662378340959549,-0.357862263917923,-0.21840576827526093
1781099260282532900,23.722532958984374,-0.03210199251770973,-0.4076833724975586,-0.331732839345932
1781099260307607800,23.74760791015625,-0.04356677457690239,-0.2568477988243103,-0.26001858711242676
1781099260332683800,23.772683837890625,-0.0779951810836792,-0.35328447818756104,-0.08892684429883957
1781099260357758700,23.7977587890625,-0.07688093185424805,-0.13556252419948578,-0.036591242998838425
1781099260382835000,23.8228349609375,-0.07149911671876907,-0.2004796415567398,-0.23985984921455383
1781099260407910000,23.847909912109376,-0.1705499142408371,-0.46677160263061523,-0.3030796945095062
1781099260432985900,23.87298583984375,-0.14439748227596283,-0.4146629869937897,-0.18081800639629364
1781099260458061800,23.898061767578124,-0.11445409059524536,-0.2853434979915619,-0.055430375039577484
1781099260483136800,23.92313671875,-0.1534731388092041,0.0031572135630995035,-0.058910053223371506
1781099260508212700,23.948212646484375,-0.24036231637001038,-0.09753082692623138,-0.026647817343473434
1781099260533287700,23.97328759765625,-0.1950216144323349,-0.06292323023080826,0.014227835461497307
1781099260558364000,23.998364013671875,-0.18042375147342682,-0.29718759655952454,-0.010554753243923187
1781099260583438800,24.02343896484375,-0.18717345595359802,-0.15539686381816864,-0.004700230434536934
1781099260608514800,24.048514892578126,-0.19815710186958313,-0.3022603690624237,0.036490123718976974
1781099260633591000,24.073591064453126,-0.19909754395484924,-0.13384336233139038,0.18607763946056366
1781099260658666000,24.098666015625,-0.22458726167678833,-0.0976887047290802,0.23847316205501556
1781099260683741700,24.12374169921875,-0.179151251912117,-0.0277920700609684,0.11025428771972656
1781099260708816600,24.148816650390625,-0.2140989750623703,-0.1373058259487152,-0.15242703258991241
1781099260733892900,24.173892822265625,-0.42576470971107483,-0.32695043087005615,-0.24171093106269836
1781099260758967800,24.1989677734375,-0.3976181745529175,-0.04135050252079964,-0.06665990501642227
1781099260784043800,24.224043701171876,-0.0265114177018404,0.3399380147457123,0.2623833119869232
1781099260809120000,24.2491201171875,-0.0735124871134758,0.6935645341873169,-0.12871602177619934
1781099260834195000,24.27419482421875,-0.5641137361526489,0.5880005359649658,-0.38962528109550476
1781099260859271000,24.29927099609375,-0.2524065375328064,-0.3286838233470917,-0.3474486172199249
1781099260884345900,24.324345947265623,-0.14174231886863708,-0.3592686057090759,0.3470657467842102
1781099260909421800,24.349421875,-0.17930129170417786,-0.03828606754541397,0.48854634165763855
1781099260934496800,24.374496826171875,-0.16501149535179138,0.3448720872402191,0.43814367055892944
1781099260959573200,24.3995732421875,-0.013715378940105438,0.27919480204582214,0.21575278043746948
1781099260984648200,24.424648193359374,-0.17898230254650116,-0.2543746829032898,-0.1866162270307541
1781099261009724200,24.44972412109375,-0.1973312348127365,-0.3580968677997589,-0.07248938083648682
1781099261034800400,24.47480029296875,0.00011727435048669577,-0.1912696212530136,0.36143290996551514
1781099261059875300,24.499875244140625,-0.022790642455220222,0.29444897174835205,0.41374170780181885
1781099261084951000,24.524950927734373,-0.16982276737689972,0.7193570137023926,0.22135649621486664
1781099261110026200,24.550026123046877,-0.04339666664600372,0.26489633321762085,-0.04866063967347145
1781099261135102200,24.575102294921876,-0.0452408529818058,-0.184229776263237,-0.08732274919748306
1781099261160177200,24.60017724609375,-0.17443016171455383,0.0230619665235281,-0.11996765434741974
1781099261185253000,24.625253173828124,-0.17128436267375946,0.35591110587120056,0.19868548214435577
1781099261210329300,24.650329345703124,-0.0714111179113388,0.4064067304134369,0.37824955582618713
1781099261235404300,24.675404296875,-0.07362952828407288,0.5602165460586548,0.21428272128105164
1781099261260480300,24.700480224609375,-0.17088240385055542,0.39226973056793213,0.07596364617347717
1781099261285555200,24.72555517578125,-0.1449994444847107,0.20252640545368195,0.32088175415992737
1781099261310631200,24.750631103515627,0.01679982990026474,0.4388042092323303,0.3765449821949005
1781099261335706000,24.7757060546875,0.03554162383079529,0.5858810544013977,0.32324454188346863
1781099261360782000,24.800781982421874,-0.0761842355132103,0.38479843735694885,0.376823753118515
1781099261385858300,24.8258583984375,0.06311757862567902,0.41668638586997986,0.4461962878704071
1781099261410933200,24.850933349609374,0.15176811814308167,0.3794344365596771,0.29613810777664185
1781099261436009200,24.87600927734375,0.036783941090106964,0.41734400391578674,0.23681209981441498
1781099261461084200,24.901084228515625,0.02427402324974537,0.3840041160583496,0.3471493124961853
1781099261486160400,24.926160400390625,0.12300404906272888,0.4614841938018799,0.5119385719299316
1781099261511235300,24.9512353515625,0.1907273232936859,0.4594513177871704,0.36353349685668945
1781099261536311000,24.97631103515625,0.11337342858314514,0.46954071521759033,0.23961851000785828
1781099261561387300,25.00138720703125,0.03151500225067139,0.2514638304710388,0.18378682434558868
1781099261586462200,25.026462158203124,0.11890973895788193,0.26627451181411743,0.21253585815429688
1781099261611538200,25.0515380859375,0.16860055923461914,0.3651893436908722,0.11864476650953293
1781099261636613000,25.076613037109375,0.12225549668073654,0.5422171950340271,0.1778804510831833
1781099261661689300,25.101689453125,0.18451066315174103,0.435115784406662,0.20073044300079346
1781099261686764300,25.126764404296875,0.238929882645607,0.44717827439308167,-0.0810435488820076
1781099261711840300,25.15184033203125,0.1780281513929367,0.3053657114505768,-0.11515147984027863
1781099261736916200,25.176916259765626,0.14367002248764038,0.2760874330997467,-0.008644402958452702
1781099261761991200,25.2019912109375,0.1956813931465149,0.29554399847984314,0.14617536962032318
1781099261787067100,25.227067138671874,0.25518542528152466,0.3435744345188141,-0.051363255828619
1781099261812142000,25.25214208984375,0.1949043720960617,0.2948617935180664,0.025432022288441658
1781099261837218300,25.27721826171875,0.22626477479934692,0.1887904405593872,0.1107555404305458
1781099261862293200,25.302293212890625,0.2860885560512543,0.30819159746170044,0.035764798521995544
1781099261887369200,25.327369140625,0.24401718378067017,0.13331317901611328,-0.1918221414089203
1781099261912445200,25.352445068359376,0.16458551585674286,0.10150252282619476,-0.19285164773464203
1781099261937520400,25.377520263671876,0.20288465917110443,-0.01563955657184124,-0.08373881876468658
1781099261962596400,25.402596435546876,0.30489709973335266,0.20212213695049286,-0.0727606788277626
1781099261987671300,25.42767138671875,0.29446518421173096,0.26960110664367676,-0.06490977853536606
1781099262012747300,25.452747314453124,0.29709532856941223,0.2565597891807556,-0.1451859325170517
1781099262037823500,25.477823486328123,0.2829403281211853,0.17310187220573425,-0.26057085394859314
1781099262062898400,25.5028984375,0.2632901668548584,0.037620726972818375,-0.19925189018249512
1781099262087974400,25.527974365234375,0.2862465977668762,0.06027965992689133,-0.025762692093849182
1781099262113049300,25.55304931640625,0.35929980874061584,0.05607886239886284,0.09870525449514389
1781099262138125300,25.578125244140626,0.3394158184528351,0.14613279700279236,0.022344445809721947
1781099262163201300,25.603201171875,0.32415473461151123,0.028716538101434708,0.01985773630440235
1781099262188276200,25.628276123046874,0.3353356122970581,-0.042179591953754425,0.017824528738856316
1781099262213352400,25.6533525390625,0.2289259135723114,-0.07228749990463257,0.09747359901666641
1781099262238427400,25.678427490234377,0.16508837044239044,-0.05850648880004883,-0.00930577702820301
1781099262263503400,25.70350341796875,0.25566279888153076,-0.19716738164424896,-0.23854340612888336
1781099262288579600,25.72857958984375,0.15103186666965485,-0.09560995548963547,-0.2858048379421234
1781099262313654500,25.753654541015624,0.08088134974241257,-0.034984298050403595,-0.2035922110080719
1781099262338730200,25.778730224609376,0.17415235936641693,0.09737884253263474,-0.07943964004516602
1781099262363805200,25.80380517578125,0.3080514669418335,0.3699283003807068,-0.09622383862733841
1781099262388881400,25.82888134765625,0.20800141990184784,0.5700532793998718,-0.2748728096485138
1781099262413956400,25.853956298828123,0.12086441367864609,0.2541869282722473,-0.35012438893318176
1781099262439032300,25.8790322265625,0.13095957040786743,-0.11130965501070023,-0.2773330807685852
1781099262464108500,25.904108642578127,0.2227270007133484,0.004496998153626919,-0.02931690588593483
1781099262489183500,25.92918359375,0.41129741072654724,0.09668219089508057,-0.05159036070108414
1781099262514259500,25.954259521484374,0.32403597235679626,0.14128254354000092,-0.030609402805566788
1781099262539334400,25.97933447265625,0.1363178789615631,-0.011508727446198463,-0.27078115940093994
1781099262564410400,26.004410400390626,0.16251660883426666,-0.2377755045890808,-0.29122528433799744
1781099262589486300,26.029486328125,-0.00477228919044137,-0.32545432448387146,-0.3552897870540619
1781099262614561300,26.054561279296873,0.10606645047664642,-0.07870561629533768,-0.11187385022640228
1781099262639637500,26.079637451171877,0.3707149624824524,0.15457209944725037,0.09553296864032745
1781099262664712400,26.10471240234375,0.25637155771255493,0.6739599108695984,0.19039179384708405
1781099262689788400,26.129788330078124,0.35115981101989746,0.26523467898368835,-0.17612716555595398
1781099262714863400,26.15486328125,0.1912253499031067,-0.44561564922332764,-0.3941909670829773
1781099262739939300,26.179939208984376,-0.5989996194839478,-0.9287083148956299,-0.31302642822265625
1781099262765015300,26.205015380859376,-0.28397950530052185,-0.6500883102416992,-0.07465451955795288
1781099262790090200,26.23009033203125,0.5003018379211426,-0.6364811062812805,-0.07161413133144379
1781099262815166500,26.25516650390625,0.20871402323246002,0.7468879222869873,-1.2829099893569946
1781099262840241400,26.280241455078126,-0.24888086318969727,1.080345869064331,-0.3827883005142212
1781099262865317400,26.3053173828125,0.4725669026374817,-0.7478623390197754,-0.45216572284698486
1781099262890393300,26.330393310546874,-0.08419516682624817,0.4059765934944153,0.16542375087738037
1781099262915468500,26.355468505859374,0.004495337605476379,0.07165568321943283,0.38434919714927673
1781099262940544300,26.380544189453126,-0.041483357548713684,-0.3235225975513458,0.08577475696802139
1781099262965619700,26.40561962890625,-0.19590720534324646,-0.5455974340438843,0.12693479657173157
1781099262990695700,26.43069580078125,0.000727670849300921,-0.7297317385673523,-0.04338647797703743
1781099263015771600,26.455771728515625,0.1442786306142807,-0.805453896522522,-0.14654682576656342
1781099263040846800,26.480846923828125,0.11817484349012375,-0.40462106466293335,0.03252946212887764
1781099263065922800,26.5059228515625,-0.0504341796040535,0.07337956130504608,-0.05739033594727516
1781099263090997800,26.530997802734376,-0.22409892082214355,0.39582064747810364,-0.199509397149086
1781099263116073700,26.55607373046875,-0.19559717178344727,0.08117152750492096,-0.29392561316490173
1781099263141149700,26.581149658203124,-0.02938331477344036,0.09037894010543823,-0.12292522192001343
1781099263166224600,26.606224609375,-0.005054522305727005,0.07463563978672028,-0.05144195258617401
1781099263191300600,26.631300537109375,0.06620420515537262,0.4897667467594147,-0.1515408456325531
1781099263216375800,26.656375732421875,-0.02145785093307495,0.2349129617214203,-0.3481638431549072
1781099263241451800,26.68145166015625,-0.11112625896930695,0.028103990480303764,-0.04253386706113815
1781099263266526700,26.706526611328126,-0.03295639902353287,0.06400632113218307,0.13470129668712616
1781099263291602700,26.731602783203126,0.10587960481643677,0.06012478843331337,0.2579735517501831
1781099263316678700,26.7566787109375,0.11921294033527374,0.04563930630683899,0.137513667345047
1781099263341753600,26.781753662109374,0.021478474140167236,-0.22778409719467163,0.060929201543331146
1781099263366829600,26.80682958984375,0.09018975496292114,-0.11525333672761917,0.049199771136045456
1781099263391904500,26.831904541015625,0.11483077704906464,-0.1832631230354309,0.08095408231019974
1781099263416980700,26.856980712890625,0.06759511679410934,-0.011296035721898079,0.23614977300167084
1781099263442056700,26.882056640625,0.1657351702451706,0.04378947615623474,0.300250381231308
1781099263467131600,26.907131591796876,0.2440774291753769,0.20341403782367706,0.03435352444648743
1781099263492207900,26.932207763671876,0.10694423317909241,0.07184208184480667,-0.12984725832939148
1781099263517282800,26.95728271484375,0.03167637437582016,-0.10791703313589096,-0.13945727050304413
1781099263542358500,26.982358642578124,0.09933465719223022,-0.03807178884744644,-0.09962209314107895
1781099263567434800,27.007434814453124,0.09200169891119003,0.0810655951499939,-0.04327007755637169
1781099263592509700,27.032509765625,0.06373011320829391,0.4372633993625641,-0.0036233323626220226
1781099263617585700,27.057585693359375,0.0305471308529377,0.3038094639778137,-0.10570655763149261
1781099263642660600,27.08266064453125,0.03183304890990257,0.18083155155181885,-0.20088090002536774
1781099263667736800,27.10773681640625,0.01775999367237091,-0.08080795407295227,-0.2642069458961487
1781099263692812800,27.132812744140626,-0.0032922462560236454,-0.002126094652339816,-0.12605199217796326
1781099263717887700,27.1578876953125,-0.008883020840585232,0.04852660745382309,-0.09971489012241364
1781099263742963700,27.182963623046874,-0.0024406935553997755,0.0990736111998558,-0.06947697699069977
1781099263768038700,27.20803857421875,0.031544748693704605,0.26405593752861023,-0.07551936060190201
1781099263793114600,27.233114501953125,-0.08202241361141205,0.0715760737657547,0.0034251403994858265
1781099263818189600,27.258189453125,0.046351924538612366,0.09084632247686386,-0.021838821470737457
1781099263843265800,27.283265869140624,0.05582833290100098,-0.08368788659572601,-0.1770664006471634
1781099263868341800,27.308341796875,-0.08003019541501999,-0.17573069036006927,-0.07425086945295334
1781099263893416700,27.333416748046876,-0.012495191767811775,-0.06743813306093216,-0.0211174339056015
1781099263918492700,27.35849267578125,0.00575617328286171,-0.10901572555303574,0.02295193076133728
1781099263943568000,27.38356787109375,-0.01726611889898777,0.0772773027420044,0.019863976165652275
1781099263968643000,27.40864306640625,-0.1130070686340332,-0.1448117047548294,-0.12133342027664185
1781099263993719300,27.43371923828125,-0.09311199188232422,-0.10387153923511505,-0.1253410130739212
1781099264018794200,27.458794189453126,-0.042973801493644714,-0.2590124309062958,-0.16309858858585358
1781099264043870200,27.4838701171875,0.0038969714660197496,-0.1678362637758255,-0.14011849462985992
1781099264068945200,27.508945068359374,0.07957811653614044,-0.06730329245328903,-0.25587254762649536
1781099264094021400,27.534021484375,0.0678279846906662,-0.21712420880794525,-0.2582733929157257
1781099264119097300,27.559097412109374,0.13731524348258972,-0.11601412296295166,-0.23057988286018372
1781099264144172300,27.58417236328125,0.1379479169845581,-0.23894700407981873,-0.2949368953704834
1781099264169248300,27.609248291015625,0.1182599812746048,-0.26868706941604614,-0.3870207369327545
1781099264194323200,27.6343232421875,0.12292737513780594,-0.33724427223205566,-0.36163103580474854
1781099264219399200,27.659399169921876,0.08911275863647461,-0.4176785945892334,-0.22708941996097565
1781099264244475400,27.684475341796876,0.15779165923595428,-0.14755317568778992,-0.16466651856899261
1781099264269550300,27.70955029296875,0.1010221615433693,-0.27052032947540283,-0.23693695664405823
1781099264294626300,27.734626220703124,0.05491010472178459,-0.3021058440208435,-0.25799718499183655
1781099264319701200,27.759701171875,-0.021659065037965775,-0.4831274747848511,-0.25805771350860596
1781099264344777500,27.784777587890623,0.047561708837747574,-0.38399726152420044,-0.17298714816570282
1781099264369852400,27.809852294921875,-0.019321545958518982,-0.38036900758743286,-0.17985476553440094
1781099264394928000,27.83492822265625,-0.07735331356525421,-0.3091690242290497,-0.15663933753967285
1781099264420004400,27.86000439453125,-0.04656023532152176,-0.4318995177745819,-0.35739877820014954
1781099264445079300,27.885079345703126,-0.15036356449127197,-0.42181479930877686,-0.25569742918014526
1781099264470155300,27.9101552734375,-0.15700063109397888,-0.2085486799478531,-0.061024799942970276
1781099264495230200,27.935230224609374,-0.11330254375934601,-0.17925237119197845,0.04536809027194977
1781099264520306400,27.960306396484373,-0.11472310870885849,-0.11431940644979477,-0.09888902306556702
1781099264545382100,27.985382080078125,-0.2075936496257782,-0.3762211203575134,-0.20822133123874664
1781099264570457300,28.010457275390625,-0.11055535078048706,-0.49090272188186646,-0.03912537544965744
1781099264595533000,28.035532958984376,-0.007720645517110825,-0.30535852909088135,-0.06014017015695572
1781099264620608300,28.060608154296876,-0.15658451616764069,-0.06312336027622223,-0.048003435134887695
1781099264645684200,28.085684326171876,-0.1290757805109024,-0.12344802916049957,-0.017004894092679024
1781099264670760200,28.11076025390625,-0.08700083196163177,-0.3873489797115326,-0.039685264229774475
1781099264695835400,28.13583544921875,-0.12257905304431915,-0.2827691435813904,-0.15613830089569092
1781099264720911400,28.160911376953123,-0.1565002053976059,-0.16188091039657593,-0.1857590228319168
1781099264745986300,28.185986328125,-0.15859748423099518,-0.21615391969680786,-0.00988997146487236
1781099264771062000,28.21106201171875,-0.17844071984291077,-0.08604054898023605,-0.06930650770664215
1781099264796138200,28.23613818359375,-0.10715790838003159,0.1453554779291153,-0.017257031053304672
1781099264821213200,28.261213134765626,-0.15809224545955658,-0.11867990344762802,-0.04459124803543091
1781099264846289200,28.2862890625,-0.23187275230884552,-0.11825865507125854,-0.09930641949176788
1781099264871364400,28.3113642578125,-0.1932746320962906,-0.3327510952949524,-0.05012121424078941
1781099264896440300,28.3364404296875,-0.1104220375418663,-0.2483171671628952,0.08285584300756454
1781099264921516300,28.361516357421873,-0.08631131798028946,0.05461268499493599,0.012493053451180458
1781099264946591200,28.38659130859375,-0.16068129241466522,0.00494330283254385,-0.0197172649204731
1781099264971667000,28.4116669921875,-0.0853382796049118,-0.08623447269201279,-0.02042347565293312
1781099264996742000,28.436741943359376,-0.11766712367534637,-0.27416518330574036,0.027601663023233414
1781099265021818000,28.461818115234376,-0.10339924693107605,-0.21626590192317963,0.060395799577236176
1781099265046893000,28.48689306640625,-0.03755403310060501,-0.13988856971263885,0.06405334174633026
1781099265071969000,28.511968994140624,-0.08821974694728851,-0.3264653980731964,0.07235448807477951
1781099265097045200,28.537045166015623,-0.20789164304733276,-0.28589650988578796,0.08890567719936371
1781099265122120200,28.5621201171875,-0.039928071200847626,-0.08376646041870117,0.15547659993171692
1781099265147196200,28.587196044921875,-0.13499262928962708,-0.13651996850967407,-0.09321696311235428
1781099265172271000,28.61227099609375,-0.35174116492271423,-0.03603040799498558,0.04171638935804367
1781099265197347000,28.63734716796875,-0.32834455370903015,-0.2591988742351532,-0.012087211012840271
1781099265222423000,28.662423095703126,-0.02399270050227642,0.11792302876710892,0.14599184691905975
1781099265247498000,28.687498046875,-0.3609115481376648,0.3618910312652588,-0.20972226560115814
1781099265272574200,28.71257421875,-0.4030919075012207,0.36331191658973694,0.05183117091655731
1781099265297649200,28.737649169921873,-0.04514026641845703,0.2770498991012573,0.060997117310762405
1781099265322725000,28.76272509765625,-0.4250253438949585,0.1665697693824768,-0.10271071642637253
1781099265347801000,28.787801025390625,-0.2187708169221878,-0.2102079838514328,0.27148357033729553
1781099265372876300,28.812876220703124,-0.06695005297660828,-0.23625630140304565,0.3641800582408905
1781099265397952000,28.837951904296876,-0.23088392615318298,-0.053440578281879425,0.2574431896209717
1781099265423027000,28.86302685546875,-0.20022332668304443,-0.1027112677693367,0.011829572729766369
1781099265448103200,28.888103271484376,-0.20209692418575287,-0.3075436055660248,0.09327536821365356
1781099265473179100,28.91317919921875,-0.14913751184940338,-0.2780953347682953,0.10704050958156586
1781099265498254000,28.938254150390627,-0.19548025727272034,-0.02834510989487171,0.04011733457446098
1781099265523330000,28.963330078125,-0.22652465105056763,-0.043331731110811234,0.09701106697320938
1781099265548405200,28.9884052734375,-0.20041099190711975,-0.160019189119339,-0.00038679270073771477
1781099265573481000,29.01348095703125,-0.09504150599241257,-0.15020041167736053,-0.13452768325805664
1781099265598557000,29.038556884765626,-0.0659206435084343,-0.26413851976394653,-0.325152724981308
1781099265623632100,29.063632080078126,-0.10204404592514038,-0.25425493717193604,-0.3273000419139862
1781099265648708000,29.0887080078125,-0.11193353682756424,-0.08359275758266449,-0.2636687159538269
1781099265673783000,29.113782958984373,-0.13041171431541443,-0.0773027241230011,-0.1314631551504135
1781099265698859000,29.13885888671875,-0.11917058378458023,-0.31179386377334595,-0.12090110778808594
1781099265723935200,29.163935302734377,-0.05286305770277977,-0.2603466212749481,-0.24033784866333008
1781099265749010200,29.18901025390625,-0.21749581396579742,-0.5672714710235596,-0.2639845013618469
1781099265774086000,29.2140859375,-0.15503506362438202,-0.38921281695365906,-0.05735399201512337
1781099265799161000,29.2391611328125,-0.12420928478240967,-0.2704544961452484,0.03761693090200424
1781099265824237000,29.264237060546876,-0.3737640976905823,-0.3040201961994171,-0.06980258971452713
1781099265849313000,29.28931298828125,-0.32507190108299255,-0.3879826068878174,-0.10342998802661896
1781099265874388000,29.314387939453123,-0.31273311376571655,-0.568753182888031,0.026473725214600563
1781099265899464200,29.339464111328127,-0.32131659984588623,-0.4024786055088043,0.09103738516569138
1781099265924539100,29.3645390625,-0.2688346207141876,-0.16846010088920593,0.03462699055671692
1781099265949615000,29.389614990234374,-0.1993343085050583,-0.2376055270433426,0.048162270337343216
1781099265974689800,29.414689697265626,-0.13932465016841888,-0.20784835517406464,-0.08078517019748688
1781099265999765800,29.439765869140626,-0.22650569677352905,-0.3678523004055023,0.00024973833933472633
1781099266024841700,29.464841796875,-0.18789897859096527,-0.26655396819114685,0.14960691332817078
1781099266049916700,29.489916748046873,-0.22144760191440582,-0.18332532048225403,0.21465221047401428
1781099266074993000,29.514992919921873,-0.269037127494812,-0.06466545909643173,0.06488737463951111
1781099266100068900,29.54006884765625,-0.31539449095726013,-0.25357118248939514,-0.05927588418126106
1781099266125143800,29.565143798828124,-0.27575013041496277,-0.16823969781398773,-0.034579865634441376
1781099266150220000,29.590219970703124,-0.28651466965675354,-0.15558499097824097,0.015659581869840622
1781099266175295000,29.615294921875,-0.1928807646036148,-0.04961264133453369,0.052924744784832
1781099266200370700,29.64037060546875,-0.19984903931617737,-0.10475241392850876,-0.02824399434030056
1781099266225447000,29.665447021484376,-0.1934063881635666,-0.26316210627555847,-0.05858810991048813
1781099266250521900,29.69052197265625,-0.24803800880908966,-0.2954995930194855,0.07429234683513641
1781099266275597800,29.715597900390627,-0.19664686918258667,-0.05907384678721428,0.01632077805697918
1781099266300672800,29.7406728515625,-0.2815227806568146,0.07644832134246826,-0.09690658748149872
1781099266325749000,29.7657490234375,-0.2763631045818329,0.0453973263502121,-0.12001372128725052
1781099266350825000,29.790824951171874,-0.30326777696609497,0.06678354740142822,-0.05009162425994873
1781099266375900000,29.81589990234375,-0.26581522822380066,-0.06278704106807709,-0.09188709408044815
1781099266400976000,29.840975830078126,-0.2987660765647888,-0.10193615406751633,-0.13206683099269867
1781099266426050800,29.86605078125,-0.2806261479854584,-0.18132205307483673,-0.08425023406744003
1781099266451126800,29.891126708984373,-0.3178345263004303,-0.16040021181106567,0.021066797897219658
1781099266476200700,29.91620068359375,-0.36773359775543213,-0.03348327800631523,-0.031243715435266495
1781099266501276700,29.941276611328124,-0.3663741946220398,0.050218768417835236,-0.06562850624322891
1781099266526353000,29.966352783203124,-0.4360707402229309,-0.0720331221818924,-0.024527734145522118
1781099266551427800,29.991427734375,-0.40696561336517334,0.0393151119351387,-0.004472168628126383
1781099266576503800,30.01650390625,-0.4092853367328644,0.006597790867090225,0.04458577185869217
1781099266601579000,30.0415791015625,-0.35880592465400696,0.09944255650043488,0.012090878561139107
1781099266626655000,30.066655029296875,-0.3836514353752136,-0.07702664285898209,0.003369538113474846
1781099266651730700,30.091730712890627,-0.3101801574230194,-0.054355066269636154,-0.04106374457478523
1781099266676805600,30.1168056640625,-0.35916051268577576,-0.12154752016067505,-0.11951810121536255
1781099266701881900,30.1418818359375,-0.4145928919315338,-0.0318317674100399,-0.045686982572078705
1781099266726956800,30.166956787109374,-0.40688371658325195,-0.00537839625030756,0.22529369592666626
1781099266752032800,30.19203271484375,-0.31074395775794983,0.09837085008621216,0.35877788066864014
1781099266777109000,30.21710888671875,-0.3044332265853882,-0.004380230326205492,0.08544851094484329
1781099266802184000,30.242183837890625,-0.37433934211730957,-0.2966530919075012,-0.13741841912269592
1781099266827260000,30.267260009765625,-0.2860106825828552,-0.28547778725624084,0.058322466909885406
1781099266852335900,30.2923359375,-0.22383186221122742,-0.05883439630270004,0.21457131206989288
1781099266877410800,30.317410888671876,-0.26056674122810364,0.20561696588993073,0.033739123493433
1781099266902486800,30.34248681640625,-0.3392565846443176,0.1952555626630783,-0.25791996717453003
1781099266927561700,30.367561767578124,-0.24362941086292267,-0.11017251759767532,-0.2767634689807892
1781099266952638000,30.392637939453124,-0.31431132555007935,-0.15280847251415253,-0.023461906239390373
1781099266977714400,30.41771435546875,-0.2789527475833893,0.13531556725502014,0.1797250360250473
1781099267002789600,30.44278955078125,-0.29671648144721985,0.20925773680210114,0.26756981015205383
